{"nodes":[{"id":"ADSL.STUDYID","group":1,"variable":"STUDYID","dataset":"ADSL"},{"id":"ADPSL.STUDYID","dataset":"ADPSL","variable":"STUDYID","group":2},{"id":"ADSL.USUBJID","group":1,"variable":"USUBJID","dataset":"ADSL"},{"id":"ADPSL.USUBJID","dataset":"ADPSL","variable":"USUBJID","group":2},{"id":"ADSL.SUBJID","group":1,"variable":"SUBJID","dataset":"ADSL"},{"id":"ADPSL.SUBJID","dataset":"ADPSL","variable":"SUBJID","group":2},{"id":"ADSL.SITEID","group":1,"variable":"SITEID","dataset":"ADSL"},{"id":"ADPSL.SITEID","dataset":"ADPSL","variable":"SITEID","group":2},{"id":"ADSL.COUNTRY","group":1,"variable":"COUNTRY","dataset":"ADSL"},{"id":"ADPSL.COUNTRY","dataset":"ADPSL","variable":"COUNTRY","group":2},{"id":"ADSL.INVNAM","group":1,"variable":"INVNAM","dataset":"ADSL"},{"id":"ADPSL.INVNAM","dataset":"ADPSL","variable":"INVNAM","group":2},{"id":"ADSL.BRTHDT","group":1,"variable":"BRTHDT","dataset":"ADSL"},{"id":"ADPSL.BRTHDT","dataset":"ADPSL","variable":"BRTHDT","group":2},{"id":"ADSL.BRTHDTC","group":1,"variable":"BRTHDTC","dataset":"ADSL"},{"id":"ADPSL.BRTHDTC","dataset":"ADPSL","variable":"BRTHDTC","group":2},{"id":"ADSL.AGE","group":1,"variable":"AGE","dataset":"ADSL"},{"id":"ADPSL.AGE","dataset":"ADPSL","variable":"AGE","group":2},{"id":"ADSL.AGEU","group":1,"variable":"AGEU","dataset":"ADSL"},{"id":"ADPSL.AGEU","dataset":"ADPSL","variable":"AGEU","group":2},{"id":"ADSL.AAGE","group":1,"variable":"AAGE","dataset":"ADSL"},{"id":"ADPSL.AAGE","dataset":"ADPSL","variable":"AAGE","group":2},{"id":"ADSL.AAGEU","group":1,"variable":"AAGEU","dataset":"ADSL"},{"id":"ADPSL.AAGEU","dataset":"ADPSL","variable":"AAGEU","group":2},{"id":"ADSL.GESTAGE","group":1,"variable":"GESTAGE","dataset":"ADSL"},{"id":"ADPSL.GESTAGE","dataset":"ADPSL","variable":"GESTAGE","group":2},{"id":"ADSL.GESTAGEU","group":1,"variable":"GESTAGEU","dataset":"ADSL"},{"id":"ADPSL.GESTAGEU","dataset":"ADPSL","variable":"GESTAGEU","group":2},{"id":"ADSL.GAGECAT","group":1,"variable":"GAGECAT","dataset":"ADSL"},{"id":"ADPSL.GAGECAT","dataset":"ADPSL","variable":"GAGECAT","group":2},{"id":"ADSL.GAGECATN","group":1,"variable":"GAGECATN","dataset":"ADSL"},{"id":"ADPSL.GAGECATN","dataset":"ADPSL","variable":"GAGECATN","group":2},{"id":"ADSL.SEX","group":1,"variable":"SEX","dataset":"ADSL"},{"id":"ADPSL.SEX","dataset":"ADPSL","variable":"SEX","group":2},{"id":"ADSL.SEXN","group":1,"variable":"SEXN","dataset":"ADSL"},{"id":"ADSL.RACE","group":1,"variable":"RACE","dataset":"ADSL"},{"id":"ADPSL.RACE","dataset":"ADPSL","variable":"RACE","group":2},{"id":"ADSL.RACE1","group":1,"variable":"RACE1","dataset":"ADSL"},{"id":"SUPPDM.RACE1","dataset":"SUPPDM","variable":"RACE1","group":3},{"id":"ADSL.RACE2","group":1,"variable":"RACE2","dataset":"ADSL"},{"id":"SUPPDM.RACE2","dataset":"SUPPDM","variable":"RACE2","group":3},{"id":"ADSL.RACE3","group":1,"variable":"RACE3","dataset":"ADSL"},{"id":"SUPPDM.RACE3","dataset":"SUPPDM","variable":"RACE3","group":3},{"id":"ADSL.RACEOR","group":1,"variable":"RACEOR","dataset":"ADSL"},{"id":"SUPPDM.RACEOR","dataset":"SUPPDM","variable":"RACEOR","group":3},{"id":"ADSL.RACEGR1","group":1,"variable":"RACEGR1","dataset":"ADSL"},{"id":"ADSL.RACEGR1N","group":1,"variable":"RACEGR1N","dataset":"ADSL"},{"id":"ADSL.ETHNIC","group":1,"variable":"ETHNIC","dataset":"ADSL"},{"id":"ADPSL.ETHNIC","dataset":"ADPSL","variable":"ETHNIC","group":2},{"id":"ADSL.LISTRACE","group":1,"variable":"LISTRACE","dataset":"ADSL"},{"id":"ADSL.FAS1FL","group":1,"variable":"FAS1FL","dataset":"ADSL"},{"id":"ADPSL.FAS1FL","dataset":"ADPSL","variable":"FAS1FL","group":2},{"id":"ADSL.FAS2FL","group":1,"variable":"FAS2FL","dataset":"ADSL"},{"id":"ADPSL.FAS2FL","dataset":"ADPSL","variable":"FAS2FL","group":2},{"id":"ADSL.FAS3FL","group":1,"variable":"FAS3FL","dataset":"ADSL"},{"id":"ADPSL.FAS3FL","dataset":"ADPSL","variable":"FAS3FL","group":2},{"id":"ADSL.SAFFL","group":1,"variable":"SAFFL","dataset":"ADSL"},{"id":"ADPSL.SAFFL","dataset":"ADPSL","variable":"SAFFL","group":2},{"id":"ADSL.SAF1FL","group":1,"variable":"SAF1FL","dataset":"ADSL"},{"id":"ADPSL.SAF1FL","dataset":"ADPSL","variable":"SAF1FL","group":2},{"id":"ADSL.SAF2FL","group":1,"variable":"SAF2FL","dataset":"ADSL"},{"id":"ADPSL.SAF2FL","dataset":"ADPSL","variable":"SAF2FL","group":2},{"id":"ADSL.SAF3FL","group":1,"variable":"SAF3FL","dataset":"ADSL"},{"id":"ADPSL.SAF3FL","dataset":"ADPSL","variable":"SAF3FL","group":2},{"id":"ADSL.SAF4FL","group":1,"variable":"SAF4FL","dataset":"ADSL"},{"id":"ADPSL.SAF4FL","dataset":"ADPSL","variable":"SAF4FL","group":2},{"id":"ADSL.SAF5FL","group":1,"variable":"SAF5FL","dataset":"ADSL"},{"id":"ADPSL.SAF5FL","dataset":"ADPSL","variable":"SAF5FL","group":2},{"id":"ADSL.SAF6FL","group":1,"variable":"SAF6FL","dataset":"ADSL"},{"id":"ADPSL.SAF6FL","dataset":"ADPSL","variable":"SAF6FL","group":2},{"id":"ADSL.PPROT1FL","group":1,"variable":"PPROT1FL","dataset":"ADSL"},{"id":"ADSL.PPROT2FL","group":1,"variable":"PPROT2FL","dataset":"ADSL"},{"id":"ADSL.PPROT3FL","group":1,"variable":"PPROT3FL","dataset":"ADSL"},{"id":"ADSL.RANDFL","group":1,"variable":"RANDFL","dataset":"ADSL"},{"id":"ADPSL.RANDFL","dataset":"ADPSL","variable":"RANDFL","group":2},{"id":"ADSL.ENRLFL","group":1,"variable":"ENRLFL","dataset":"ADSL"},{"id":"ADPSL.ENRLFL","dataset":"ADPSL","variable":"ENRLFL","group":2},{"id":"ADSL.COVIDFL","group":1,"variable":"COVIDFL","dataset":"ADSL"},{"id":"ADPSL.COVIDFL","dataset":"ADPSL","variable":"COVIDFL","group":2},{"id":"ADSL.PP1V1FL","group":1,"variable":"PP1V1FL","dataset":"ADSL"},{"id":"ADSL.PP1V1CR","group":1,"variable":"PP1V1CR","dataset":"ADSL"},{"id":"ADSL.PP1V2FL","group":1,"variable":"PP1V2FL","dataset":"ADSL"},{"id":"ADSL.PP1V2CR","group":1,"variable":"PP1V2CR","dataset":"ADSL"},{"id":"ADSL.PP1V3FL","group":1,"variable":"PP1V3FL","dataset":"ADSL"},{"id":"ADSL.PP1V3CR","group":1,"variable":"PP1V3CR","dataset":"ADSL"},{"id":"ADSL.PP1V4FL","group":1,"variable":"PP1V4FL","dataset":"ADSL"},{"id":"ADSL.PP1V4CR","group":1,"variable":"PP1V4CR","dataset":"ADSL"},{"id":"ADSL.PP1V5FL","group":1,"variable":"PP1V5FL","dataset":"ADSL"},{"id":"ADSL.PP1V5CR","group":1,"variable":"PP1V5CR","dataset":"ADSL"},{"id":"ADSL.PP1V6FL","group":1,"variable":"PP1V6FL","dataset":"ADSL"},{"id":"ADSL.PP1V6CR","group":1,"variable":"PP1V6CR","dataset":"ADSL"},{"id":"ADSL.PP1V7FL","group":1,"variable":"PP1V7FL","dataset":"ADSL"},{"id":"ADSL.PP1V7CR","group":1,"variable":"PP1V7CR","dataset":"ADSL"},{"id":"ADSL.PP1V8FL","group":1,"variable":"PP1V8FL","dataset":"ADSL"},{"id":"ADSL.PP1V8CR","group":1,"variable":"PP1V8CR","dataset":"ADSL"},{"id":"ADSL.PP1V9FL","group":1,"variable":"PP1V9FL","dataset":"ADSL"},{"id":"ADSL.PP1V9CR","group":1,"variable":"PP1V9CR","dataset":"ADSL"},{"id":"ADSL.PP1V10FL","group":1,"variable":"PP1V10FL","dataset":"ADSL"},{"id":"ADSL.PP1V10CR","group":1,"variable":"PP1V10CR","dataset":"ADSL"},{"id":"ADSL.PP2V7FL","group":1,"variable":"PP2V7FL","dataset":"ADSL"},{"id":"ADSL.PP2V7CR","group":1,"variable":"PP2V7CR","dataset":"ADSL"},{"id":"ADSL.PP2V8FL","group":1,"variable":"PP2V8FL","dataset":"ADSL"},{"id":"ADSL.PP2V8CR","group":1,"variable":"PP2V8CR","dataset":"ADSL"},{"id":"ADSL.PP2V9FL","group":1,"variable":"PP2V9FL","dataset":"ADSL"},{"id":"ADSL.PP2V9CR","group":1,"variable":"PP2V9CR","dataset":"ADSL"},{"id":"ADSL.PP2V10FL","group":1,"variable":"PP2V10FL","dataset":"ADSL"},{"id":"ADSL.PP2V10CR","group":1,"variable":"PP2V10CR","dataset":"ADSL"},{"id":"ADSL.PP3V2FL","group":1,"variable":"PP3V2FL","dataset":"ADSL"},{"id":"ADSL.PP3V2CR","group":1,"variable":"PP3V2CR","dataset":"ADSL"},{"id":"ADSL.PP3V3FL","group":1,"variable":"PP3V3FL","dataset":"ADSL"},{"id":"ADSL.PP3V3CR","group":1,"variable":"PP3V3CR","dataset":"ADSL"},{"id":"ADSL.PP3V4FL","group":1,"variable":"PP3V4FL","dataset":"ADSL"},{"id":"ADSL.PP3V4CR","group":1,"variable":"PP3V4CR","dataset":"ADSL"},{"id":"ADSL.PP3V5FL","group":1,"variable":"PP3V5FL","dataset":"ADSL"},{"id":"ADSL.PP3V5CR","group":1,"variable":"PP3V5CR","dataset":"ADSL"},{"id":"ADSL.PP3V6FL","group":1,"variable":"PP3V6FL","dataset":"ADSL"},{"id":"ADSL.PP3V6CR","group":1,"variable":"PP3V6CR","dataset":"ADSL"},{"id":"ADSL.PP3V7FL","group":1,"variable":"PP3V7FL","dataset":"ADSL"},{"id":"ADSL.PP3V7CR","group":1,"variable":"PP3V7CR","dataset":"ADSL"},{"id":"ADSL.PP3V8FL","group":1,"variable":"PP3V8FL","dataset":"ADSL"},{"id":"ADSL.PP3V8CR","group":1,"variable":"PP3V8CR","dataset":"ADSL"},{"id":"ADSL.PP3V9FL","group":1,"variable":"PP3V9FL","dataset":"ADSL"},{"id":"ADSL.PP3V9CR","group":1,"variable":"PP3V9CR","dataset":"ADSL"},{"id":"ADSL.PP3V10FL","group":1,"variable":"PP3V10FL","dataset":"ADSL"},{"id":"ADSL.PP3V10CR","group":1,"variable":"PP3V10CR","dataset":"ADSL"},{"id":"ADSL.DSGROUP","group":1,"variable":"DSGROUP","dataset":"ADSL"},{"id":"DM.DSGROUP","dataset":"DM","variable":"DSGROUP","group":4},{"id":"ADSL.ARMCD","group":1,"variable":"ARMCD","dataset":"ADSL"},{"id":"ADPSL.ARMCD","dataset":"ADPSL","variable":"ARMCD","group":2},{"id":"ADSL.ARM","group":1,"variable":"ARM","dataset":"ADSL"},{"id":"ADPSL.ARM","dataset":"ADPSL","variable":"ARM","group":2},{"id":"ADSL.ARMN","group":1,"variable":"ARMN","dataset":"ADSL"},{"id":"ADPSL.ARMN","dataset":"ADPSL","variable":"ARMN","group":2},{"id":"ADSL.ACTARMCD","group":1,"variable":"ACTARMCD","dataset":"ADSL"},{"id":"ADPSL.ACTARMCD","dataset":"ADPSL","variable":"ACTARMCD","group":2},{"id":"ADSL.ACTARM","group":1,"variable":"ACTARM","dataset":"ADSL"},{"id":"ADPSL.ACTARM","dataset":"ADPSL","variable":"ACTARM","group":2},{"id":"ADSL.ACTARMN","group":1,"variable":"ACTARMN","dataset":"ADSL"},{"id":"ADPSL.ACTARMN","dataset":"ADPSL","variable":"ACTARMN","group":2},{"id":"ADSL.TRT01P","group":1,"variable":"TRT01P","dataset":"ADSL"},{"id":"ADPSL.TRT01P","dataset":"ADPSL","variable":"TRT01P","group":2},{"id":"ADSL.TRT01PN","group":1,"variable":"TRT01PN","dataset":"ADSL"},{"id":"ADPSL.TRT01PN","dataset":"ADPSL","variable":"TRT01PN","group":2},{"id":"ADSL.TRT02P","group":1,"variable":"TRT02P","dataset":"ADSL"},{"id":"ADPSL.TRT02P","dataset":"ADPSL","variable":"TRT02P","group":2},{"id":"ADSL.TRT02PN","group":1,"variable":"TRT02PN","dataset":"ADSL"},{"id":"ADPSL.TRT02PN","dataset":"ADPSL","variable":"TRT02PN","group":2},{"id":"ADSL.TRT03P","group":1,"variable":"TRT03P","dataset":"ADSL"},{"id":"ADPSL.TRT03P","dataset":"ADPSL","variable":"TRT03P","group":2},{"id":"ADSL.TRT03PN","group":1,"variable":"TRT03PN","dataset":"ADSL"},{"id":"ADPSL.TRT03PN","dataset":"ADPSL","variable":"TRT03PN","group":2},{"id":"ADSL.TRT04P","group":1,"variable":"TRT04P","dataset":"ADSL"},{"id":"ADPSL.TRT04P","dataset":"ADPSL","variable":"TRT04P","group":2},{"id":"ADSL.TRT04PN","group":1,"variable":"TRT04PN","dataset":"ADSL"},{"id":"ADPSL.TRT04PN","dataset":"ADPSL","variable":"TRT04PN","group":2},{"id":"ADSL.TRT05P","group":1,"variable":"TRT05P","dataset":"ADSL"},{"id":"ADPSL.TRT05P","dataset":"ADPSL","variable":"TRT05P","group":2},{"id":"ADSL.TRT05PN","group":1,"variable":"TRT05PN","dataset":"ADSL"},{"id":"ADPSL.TRT05PN","dataset":"ADPSL","variable":"TRT05PN","group":2},{"id":"ADSL.TRT01A","group":1,"variable":"TRT01A","dataset":"ADSL"},{"id":"ADPSL.TRT01A","dataset":"ADPSL","variable":"TRT01A","group":2},{"id":"ADSL.TRT01AN","group":1,"variable":"TRT01AN","dataset":"ADSL"},{"id":"ADPSL.TRT01AN","dataset":"ADPSL","variable":"TRT01AN","group":2},{"id":"ADSL.TRT02A","group":1,"variable":"TRT02A","dataset":"ADSL"},{"id":"ADPSL.TRT02A","dataset":"ADPSL","variable":"TRT02A","group":2},{"id":"ADSL.TRT02AN","group":1,"variable":"TRT02AN","dataset":"ADSL"},{"id":"ADPSL.TRT02AN","dataset":"ADPSL","variable":"TRT02AN","group":2},{"id":"ADSL.TRT03A","group":1,"variable":"TRT03A","dataset":"ADSL"},{"id":"ADPSL.TRT03A","dataset":"ADPSL","variable":"TRT03A","group":2},{"id":"ADSL.TRT03AN","group":1,"variable":"TRT03AN","dataset":"ADSL"},{"id":"ADPSL.TRT03AN","dataset":"ADPSL","variable":"TRT03AN","group":2},{"id":"ADSL.TRT04A","group":1,"variable":"TRT04A","dataset":"ADSL"},{"id":"ADPSL.TRT04A","dataset":"ADPSL","variable":"TRT04A","group":2},{"id":"ADSL.TRT04AN","group":1,"variable":"TRT04AN","dataset":"ADSL"},{"id":"ADPSL.TRT04AN","dataset":"ADPSL","variable":"TRT04AN","group":2},{"id":"ADSL.TRT05A","group":1,"variable":"TRT05A","dataset":"ADSL"},{"id":"ADPSL.TRT05A","dataset":"ADPSL","variable":"TRT05A","group":2},{"id":"ADSL.TRT05AN","group":1,"variable":"TRT05AN","dataset":"ADSL"},{"id":"ADPSL.TRT05AN","dataset":"ADPSL","variable":"TRT05AN","group":2},{"id":"ADSL.TRTSEQP","group":1,"variable":"TRTSEQP","dataset":"ADSL"},{"id":"ADPSL.TRTSEQP","dataset":"ADPSL","variable":"TRTSEQP","group":2},{"id":"ADSL.TRTSEQA","group":1,"variable":"TRTSEQA","dataset":"ADSL"},{"id":"ADPSL.TRTSEQA","dataset":"ADPSL","variable":"TRTSEQA","group":2},{"id":"ADSL.RFSTDTC","group":1,"variable":"RFSTDTC","dataset":"ADSL"},{"id":"DM.RFSTDTC","dataset":"DM","variable":"RFSTDTC","group":4},{"id":"ADSL.RFSTDT","group":1,"variable":"RFSTDT","dataset":"ADSL"},{"id":"ADSL.RFENDTC","group":1,"variable":"RFENDTC","dataset":"ADSL"},{"id":"DM.RFENDTC","dataset":"DM","variable":"RFENDTC","group":4},{"id":"ADSL.RFENDT","group":1,"variable":"RFENDT","dataset":"ADSL"},{"id":"ADSL.RFPENDTC","group":1,"variable":"RFPENDTC","dataset":"ADSL"},{"id":"DM.RFPENDTC","dataset":"DM","variable":"RFPENDTC","group":4},{"id":"ADSL.RFPENDT","group":1,"variable":"RFPENDT","dataset":"ADSL"},{"id":"ADSL.TRTSDT","group":1,"variable":"TRTSDT","dataset":"ADSL"},{"id":"ADPSL.TRTSDT","dataset":"ADPSL","variable":"TRTSDT","group":2},{"id":"ADSL.TRTEDT","group":1,"variable":"TRTEDT","dataset":"ADSL"},{"id":"ADPSL.TRTEDT","dataset":"ADPSL","variable":"TRTEDT","group":2},{"id":"ADSL.EOSSTT","group":1,"variable":"EOSSTT","dataset":"ADSL"},{"id":"ADSL.EOSDT","group":1,"variable":"EOSDT","dataset":"ADSL"},{"id":"ADSL.DCSREAS","group":1,"variable":"DCSREAS","dataset":"ADSL"},{"id":"ADSL.DCSREASP","group":1,"variable":"DCSREASP","dataset":"ADSL"},{"id":"ADSL.EOTSTT","group":1,"variable":"EOTSTT","dataset":"ADSL"},{"id":"ADSL.EOTDT","group":1,"variable":"EOTDT","dataset":"ADSL"},{"id":"ADSL.DCTREAS","group":1,"variable":"DCTREAS","dataset":"ADSL"},{"id":"ADSL.DCTREASN","group":1,"variable":"DCTREASN","dataset":"ADSL"},{"id":"ADSL.DCTREASP","group":1,"variable":"DCTREASP","dataset":"ADSL"},{"id":"ADSL.RFICDTC","group":1,"variable":"RFICDTC","dataset":"ADSL"},{"id":"DM.RFICDTC","dataset":"DM","variable":"RFICDTC","group":4},{"id":"ADSL.RFICDT","group":1,"variable":"RFICDT","dataset":"ADSL"},{"id":"ADSL.RANDDT","group":1,"variable":"RANDDT","dataset":"ADSL"},{"id":"ADSL.DTHDTC","group":1,"variable":"DTHDTC","dataset":"ADSL"},{"id":"DM.DTHDTC","dataset":"DM","variable":"DTHDTC","group":4},{"id":"ADSL.DTHDT","group":1,"variable":"DTHDT","dataset":"ADSL"},{"id":"ADSL.DTHFL","group":1,"variable":"DTHFL","dataset":"ADSL"},{"id":"DM.DTHFL","dataset":"DM","variable":"DTHFL","group":4},{"id":"ADSL.TR01SDT","group":1,"variable":"TR01SDT","dataset":"ADSL"},{"id":"ADPSL.TR01SDT","dataset":"ADPSL","variable":"TR01SDT","group":2},{"id":"ADSL.TR02SDT","group":1,"variable":"TR02SDT","dataset":"ADSL"},{"id":"ADPSL.TR02SDT","dataset":"ADPSL","variable":"TR02SDT","group":2},{"id":"ADSL.TR03SDT","group":1,"variable":"TR03SDT","dataset":"ADSL"},{"id":"ADPSL.TR03SDT","dataset":"ADPSL","variable":"TR03SDT","group":2},{"id":"ADSL.TR04SDT","group":1,"variable":"TR04SDT","dataset":"ADSL"},{"id":"ADPSL.TR04SDT","dataset":"ADPSL","variable":"TR04SDT","group":2},{"id":"ADSL.TR05SDT","group":1,"variable":"TR05SDT","dataset":"ADSL"},{"id":"ADPSL.TR05SDT","dataset":"ADPSL","variable":"TR05SDT","group":2},{"id":"ADSL.TR01EDT","group":1,"variable":"TR01EDT","dataset":"ADSL"},{"id":"ADPSL.TR01EDT","dataset":"ADPSL","variable":"TR01EDT","group":2},{"id":"ADSL.TR02EDT","group":1,"variable":"TR02EDT","dataset":"ADSL"},{"id":"ADPSL.TR02EDT","dataset":"ADPSL","variable":"TR02EDT","group":2},{"id":"ADSL.TR03EDT","group":1,"variable":"TR03EDT","dataset":"ADSL"},{"id":"ADPSL.TR03EDT","dataset":"ADPSL","variable":"TR03EDT","group":2},{"id":"ADSL.TR04EDT","group":1,"variable":"TR04EDT","dataset":"ADSL"},{"id":"ADPSL.TR04EDT","dataset":"ADPSL","variable":"TR04EDT","group":2},{"id":"ADSL.TR05EDT","group":1,"variable":"TR05EDT","dataset":"ADSL"},{"id":"ADPSL.TR05EDT","dataset":"ADPSL","variable":"TR05EDT","group":2},{"id":"ADSL.VIS1DTC","group":1,"variable":"VIS1DTC","dataset":"ADSL"},{"id":"ADSL.VIS2DTC","group":1,"variable":"VIS2DTC","dataset":"ADSL"},{"id":"ADSL.VIS3DTC","group":1,"variable":"VIS3DTC","dataset":"ADSL"},{"id":"ADSL.VIS4DTC","group":1,"variable":"VIS4DTC","dataset":"ADSL"},{"id":"ADSL.VIS5DTC","group":1,"variable":"VIS5DTC","dataset":"ADSL"},{"id":"ADSL.VIS6DTC","group":1,"variable":"VIS6DTC","dataset":"ADSL"},{"id":"ADSL.VIS7DTC","group":1,"variable":"VIS7DTC","dataset":"ADSL"},{"id":"ADSL.VIS8DTC","group":1,"variable":"VIS8DTC","dataset":"ADSL"},{"id":"ADSL.VIS1DT","group":1,"variable":"VIS1DT","dataset":"ADSL"},{"id":"ADSL.VIS2DT","group":1,"variable":"VIS2DT","dataset":"ADSL"},{"id":"ADSL.VIS3DT","group":1,"variable":"VIS3DT","dataset":"ADSL"},{"id":"ADSL.VIS4DT","group":1,"variable":"VIS4DT","dataset":"ADSL"},{"id":"ADSL.VIS5DT","group":1,"variable":"VIS5DT","dataset":"ADSL"},{"id":"ADSL.VIS6DT","group":1,"variable":"VIS6DT","dataset":"ADSL"},{"id":"ADSL.VIS7DT","group":1,"variable":"VIS7DT","dataset":"ADSL"},{"id":"ADSL.VIS8DT","group":1,"variable":"VIS8DT","dataset":"ADSL"},{"id":"ADIS.STUDYID","group":5,"variable":"STUDYID","dataset":"ADIS"},{"id":"IS.STUDYID","dataset":"IS","variable":"STUDYID","group":6},{"id":"ADIS.USUBJID","group":5,"variable":"USUBJID","dataset":"ADIS"},{"id":"IS.USUBJID","dataset":"IS","variable":"USUBJID","group":6},{"id":"ADIS.ASEQ","group":5,"variable":"ASEQ","dataset":"ADIS"},{"id":"ADIS.SUBJID","group":5,"variable":"SUBJID","dataset":"ADIS"},{"id":"ADSL.SUBJID","dataset":"ADSL","variable":"SUBJID","group":1},{"id":"ADIS.SITEID","group":5,"variable":"SITEID","dataset":"ADIS"},{"id":"ADSL.SITEID","dataset":"ADSL","variable":"SITEID","group":1},{"id":"ADIS.COUNTRY","group":5,"variable":"COUNTRY","dataset":"ADIS"},{"id":"ADSL.COUNTRY","dataset":"ADSL","variable":"COUNTRY","group":1},{"id":"ADIS.BRTHDT","group":5,"variable":"BRTHDT","dataset":"ADIS"},{"id":"ADSL.BRTHDT","dataset":"ADSL","variable":"BRTHDT","group":1},{"id":"ADIS.AGE","group":5,"variable":"AGE","dataset":"ADIS"},{"id":"ADSL.AGE","dataset":"ADSL","variable":"AGE","group":1},{"id":"ADIS.AGEU","group":5,"variable":"AGEU","dataset":"ADIS"},{"id":"ADSL.AGEU","dataset":"ADSL","variable":"AGEU","group":1},{"id":"ADIS.AAGE","group":5,"variable":"AAGE","dataset":"ADIS"},{"id":"ADSL.AAGE","dataset":"ADSL","variable":"AAGE","group":1},{"id":"ADIS.AAGEU","group":5,"variable":"AAGEU","dataset":"ADIS"},{"id":"ADSL.AAGEU","dataset":"ADSL","variable":"AAGEU","group":1},{"id":"ADIS.GESTAGE","group":5,"variable":"GESTAGE","dataset":"ADIS"},{"id":"ADSL.GESTAGE","dataset":"ADSL","variable":"GESTAGE","group":1},{"id":"ADIS.GESTAGEU","group":5,"variable":"GESTAGEU","dataset":"ADIS"},{"id":"ADSL.GESTAGEU","dataset":"ADSL","variable":"GESTAGEU","group":1},{"id":"ADIS.GAGECAT","group":5,"variable":"GAGECAT","dataset":"ADIS"},{"id":"ADSL.GAGECAT","dataset":"ADSL","variable":"GAGECAT","group":1},{"id":"ADIS.GAGECATN","group":5,"variable":"GAGECATN","dataset":"ADIS"},{"id":"ADSL.GAGECATN","dataset":"ADSL","variable":"GAGECATN","group":1},{"id":"ADIS.SEX","group":5,"variable":"SEX","dataset":"ADIS"},{"id":"ADSL.SEX","dataset":"ADSL","variable":"SEX","group":1},{"id":"ADIS.RACE","group":5,"variable":"RACE","dataset":"ADIS"},{"id":"ADSL.RACE","dataset":"ADSL","variable":"RACE","group":1},{"id":"ADIS.RACEGR1","group":5,"variable":"RACEGR1","dataset":"ADIS"},{"id":"ADSL.RACEGR1","dataset":"ADSL","variable":"RACEGR1","group":1},{"id":"ADIS.RACEGR1N","group":5,"variable":"RACEGR1N","dataset":"ADIS"},{"id":"ADSL.RACEGR1N","dataset":"ADSL","variable":"RACEGR1N","group":1},{"id":"ADIS.ETHNIC","group":5,"variable":"ETHNIC","dataset":"ADIS"},{"id":"ADSL.ETHNIC","dataset":"ADSL","variable":"ETHNIC","group":1},{"id":"ADIS.FAS1FL","group":5,"variable":"FAS1FL","dataset":"ADIS"},{"id":"ADSL.FAS1FL","dataset":"ADSL","variable":"FAS1FL","group":1},{"id":"ADIS.FAS2FL","group":5,"variable":"FAS2FL","dataset":"ADIS"},{"id":"ADSL.FAS2FL","dataset":"ADSL","variable":"FAS2FL","group":1},{"id":"ADIS.FAS3FL","group":5,"variable":"FAS3FL","dataset":"ADIS"},{"id":"ADSL.FAS3FL","dataset":"ADSL","variable":"FAS3FL","group":1},{"id":"ADIS.SAFFL","group":5,"variable":"SAFFL","dataset":"ADIS"},{"id":"ADSL.SAFFL","dataset":"ADSL","variable":"SAFFL","group":1},{"id":"ADIS.SAF1FL","group":5,"variable":"SAF1FL","dataset":"ADIS"},{"id":"ADSL.SAF1FL","dataset":"ADSL","variable":"SAF1FL","group":1},{"id":"ADIS.SAF2FL","group":5,"variable":"SAF2FL","dataset":"ADIS"},{"id":"ADSL.SAF2FL","dataset":"ADSL","variable":"SAF2FL","group":1},{"id":"ADIS.SAF3FL","group":5,"variable":"SAF3FL","dataset":"ADIS"},{"id":"ADSL.SAF3FL","dataset":"ADSL","variable":"SAF3FL","group":1},{"id":"ADIS.SAF4FL","group":5,"variable":"SAF4FL","dataset":"ADIS"},{"id":"ADSL.SAF4FL","dataset":"ADSL","variable":"SAF4FL","group":1},{"id":"ADIS.SAF5FL","group":5,"variable":"SAF5FL","dataset":"ADIS"},{"id":"ADSL.SAF5FL","dataset":"ADSL","variable":"SAF5FL","group":1},{"id":"ADIS.SAF6FL","group":5,"variable":"SAF6FL","dataset":"ADIS"},{"id":"ADSL.SAF6FL","dataset":"ADSL","variable":"SAF6FL","group":1},{"id":"ADIS.PPROT1FL","group":5,"variable":"PPROT1FL","dataset":"ADIS"},{"id":"ADSL.PPROT1FL","dataset":"ADSL","variable":"PPROT1FL","group":1},{"id":"ADIS.PPROT2FL","group":5,"variable":"PPROT2FL","dataset":"ADIS"},{"id":"ADSL.PPROT2FL","dataset":"ADSL","variable":"PPROT2FL","group":1},{"id":"ADIS.PPROT3FL","group":5,"variable":"PPROT3FL","dataset":"ADIS"},{"id":"ADSL.PPROT3FL","dataset":"ADSL","variable":"PPROT3FL","group":1},{"id":"ADIS.RANDFL","group":5,"variable":"RANDFL","dataset":"ADIS"},{"id":"ADSL.RANDFL","dataset":"ADSL","variable":"RANDFL","group":1},{"id":"ADIS.ENRLFL","group":5,"variable":"ENRLFL","dataset":"ADIS"},{"id":"ADSL.ENRLFL","dataset":"ADSL","variable":"ENRLFL","group":1},{"id":"ADIS.COVIDFL","group":5,"variable":"COVIDFL","dataset":"ADIS"},{"id":"ADSL.COVIDFL","dataset":"ADSL","variable":"COVIDFL","group":1},{"id":"ADIS.ARMCD","group":5,"variable":"ARMCD","dataset":"ADIS"},{"id":"ADSL.ARMCD","dataset":"ADSL","variable":"ARMCD","group":1},{"id":"ADIS.ARM","group":5,"variable":"ARM","dataset":"ADIS"},{"id":"ADSL.ARM","dataset":"ADSL","variable":"ARM","group":1},{"id":"ADIS.ARMN","group":5,"variable":"ARMN","dataset":"ADIS"},{"id":"ADSL.ARMN","dataset":"ADSL","variable":"ARMN","group":1},{"id":"ADIS.ACTARMCD","group":5,"variable":"ACTARMCD","dataset":"ADIS"},{"id":"ADSL.ACTARMCD","dataset":"ADSL","variable":"ACTARMCD","group":1},{"id":"ADIS.ACTARM","group":5,"variable":"ACTARM","dataset":"ADIS"},{"id":"ADSL.ACTARM","dataset":"ADSL","variable":"ACTARM","group":1},{"id":"ADIS.ACTARMN","group":5,"variable":"ACTARMN","dataset":"ADIS"},{"id":"ADSL.ACTARMN","dataset":"ADSL","variable":"ACTARMN","group":1},{"id":"ADIS.RFSTDTC","group":5,"variable":"RFSTDTC","dataset":"ADIS"},{"id":"ADSL.RFSTDTC","dataset":"ADSL","variable":"RFSTDTC","group":1},{"id":"ADIS.RFENDTC","group":5,"variable":"RFENDTC","dataset":"ADIS"},{"id":"ADSL.RFENDTC","dataset":"ADSL","variable":"RFENDTC","group":1},{"id":"ADIS.TRTSDT","group":5,"variable":"TRTSDT","dataset":"ADIS"},{"id":"ADSL.TRTSDT","dataset":"ADSL","variable":"TRTSDT","group":1},{"id":"ADIS.TRTEDT","group":5,"variable":"TRTEDT","dataset":"ADIS"},{"id":"ADSL.TRTEDT","dataset":"ADSL","variable":"TRTEDT","group":1},{"id":"ADIS.ISDTC","group":5,"variable":"ISDTC","dataset":"ADIS"},{"id":"IS.ISDTC","dataset":"IS","variable":"ISDTC","group":6},{"id":"ADIS.VISIT","group":5,"variable":"VISIT","dataset":"ADIS"},{"id":"IS.VISIT","dataset":"IS","variable":"VISIT","group":6},{"id":"ADIS.VISITNUM","group":5,"variable":"VISITNUM","dataset":"ADIS"},{"id":"IS.VISITNUM","dataset":"IS","variable":"VISITNUM","group":6},{"id":"ADIS.AVISIT","group":5,"variable":"AVISIT","dataset":"ADIS"},{"id":"ADIS.AVISITN","group":5,"variable":"AVISITN","dataset":"ADIS"},{"id":"ADIS.PARAM","group":5,"variable":"PARAM","dataset":"ADIS"},{"id":"ADIS.PARAMCD","group":5,"variable":"PARAMCD","dataset":"ADIS"},{"id":"ADIS.PARAMN","group":5,"variable":"PARAMN","dataset":"ADIS"},{"id":"ADIS.PARCAT1","group":5,"variable":"PARCAT1","dataset":"ADIS"},{"id":"ADIS.AVAL","group":5,"variable":"AVAL","dataset":"ADIS"},{"id":"ADIS.AVALLOG","group":5,"variable":"AVALLOG","dataset":"ADIS"},{"id":"ADIS.FOLD","group":5,"variable":"FOLD","dataset":"ADIS"},{"id":"ADIS.BASE","group":5,"variable":"BASE","dataset":"ADIS"},{"id":"ADIS.BASETYPE","group":5,"variable":"BASETYPE","dataset":"ADIS"},{"id":"ADIS.CRIT01","group":5,"variable":"CRIT01","dataset":"ADIS"},{"id":"ADIS.CRIT01FL","group":5,"variable":"CRIT01FL","dataset":"ADIS"},{"id":"ADIS.CRIT02","group":5,"variable":"CRIT02","dataset":"ADIS"},{"id":"ADIS.CRIT02FL","group":5,"variable":"CRIT02FL","dataset":"ADIS"},{"id":"ADIS.CRIT03","group":5,"variable":"CRIT03","dataset":"ADIS"},{"id":"ADIS.CRIT03FL","group":5,"variable":"CRIT03FL","dataset":"ADIS"},{"id":"ADIS.CRIT04","group":5,"variable":"CRIT04","dataset":"ADIS"},{"id":"ADIS.CRIT04FL","group":5,"variable":"CRIT04FL","dataset":"ADIS"},{"id":"ADIS.ABLFL","group":5,"variable":"ABLFL","dataset":"ADIS"},{"id":"ADIS.ISNAM","group":5,"variable":"ISNAM","dataset":"ADIS"},{"id":"IS.ISNAM","dataset":"IS","variable":"ISNAM","group":6},{"id":"ADIS.ISSPEC","group":5,"variable":"ISSPEC","dataset":"ADIS"},{"id":"IS.ISSPEC","dataset":"IS","variable":"ISSPEC","group":6},{"id":"ADIS.ISMETHOD","group":5,"variable":"ISMETHOD","dataset":"ADIS"},{"id":"IS.ISMETHOD","dataset":"IS","variable":"ISMETHOD","group":6},{"id":"ADIS.ISREFID","group":5,"variable":"ISREFID","dataset":"ADIS"},{"id":"IS.ISREFID","dataset":"IS","variable":"ISREFID","group":6},{"id":"ADIS.ISSPID","group":5,"variable":"ISSPID","dataset":"ADIS"},{"id":"IS.ISSPID","dataset":"IS","variable":"ISSPID","group":6},{"id":"ADIS.ISCAT","group":5,"variable":"ISCAT","dataset":"ADIS"},{"id":"IS.ISCAT","dataset":"IS","variable":"ISCAT","group":6},{"id":"ADIS.ISSTAT","group":5,"variable":"ISSTAT","dataset":"ADIS"},{"id":"IS.ISSTAT","dataset":"IS","variable":"ISSTAT","group":6},{"id":"ADIS.ISREASND","group":5,"variable":"ISREASND","dataset":"ADIS"},{"id":"IS.ISREASND","dataset":"IS","variable":"ISREASND","group":6},{"id":"ADIS.ISLLOQ","group":5,"variable":"ISLLOQ","dataset":"ADIS"},{"id":"IS.ISLLOQ","dataset":"IS","variable":"ISLLOQ","group":6},{"id":"ADIS.ISULOQ","group":5,"variable":"ISULOQ","dataset":"ADIS"},{"id":"IS.ISULOQ","dataset":"IS","variable":"ISULOQ","group":6},{"id":"ADIS.ISORRES","group":5,"variable":"ISORRES","dataset":"ADIS"},{"id":"IS.ISORRES","dataset":"IS","variable":"ISORRES","group":6},{"id":"ADIS.ISORRESU","group":5,"variable":"ISORRESU","dataset":"ADIS"},{"id":"IS.ISORRESU","dataset":"IS","variable":"ISORRESU","group":6},{"id":"ADIS.COVALR","group":5,"variable":"COVALR","dataset":"ADIS"},{"id":"ADIS.COVALS","group":5,"variable":"COVALS","dataset":"ADIS"},{"id":"ADAE.STUDYID","group":7,"variable":"STUDYID","dataset":"ADAE"},{"id":"AE.STUDYID","dataset":"AE","variable":"STUDYID","group":8},{"id":"ADAE.USUBJID","group":7,"variable":"USUBJID","dataset":"ADAE"},{"id":"AE.USUBJID","dataset":"AE","variable":"USUBJID","group":8},{"id":"ADAE.ASEQ","group":7,"variable":"ASEQ","dataset":"ADAE"},{"id":"ADAE.SUBJID","group":7,"variable":"SUBJID","dataset":"ADAE"},{"id":"ADAE.SITEID","group":7,"variable":"SITEID","dataset":"ADAE"},{"id":"ADAE.COUNTRY","group":7,"variable":"COUNTRY","dataset":"ADAE"},{"id":"ADAE.BRTHDT","group":7,"variable":"BRTHDT","dataset":"ADAE"},{"id":"ADAE.AGE","group":7,"variable":"AGE","dataset":"ADAE"},{"id":"ADAE.AGEU","group":7,"variable":"AGEU","dataset":"ADAE"},{"id":"ADAE.AAGE","group":7,"variable":"AAGE","dataset":"ADAE"},{"id":"ADAE.AAGEU","group":7,"variable":"AAGEU","dataset":"ADAE"},{"id":"ADAE.GESTAGE","group":7,"variable":"GESTAGE","dataset":"ADAE"},{"id":"ADAE.GESTAGEU","group":7,"variable":"GESTAGEU","dataset":"ADAE"},{"id":"ADAE.GAGECAT","group":7,"variable":"GAGECAT","dataset":"ADAE"},{"id":"ADAE.GAGECATN","group":7,"variable":"GAGECATN","dataset":"ADAE"},{"id":"ADAE.SEX","group":7,"variable":"SEX","dataset":"ADAE"},{"id":"ADAE.RACE","group":7,"variable":"RACE","dataset":"ADAE"},{"id":"ADAE.RACEGR1","group":7,"variable":"RACEGR1","dataset":"ADAE"},{"id":"ADAE.RACEGR1N","group":7,"variable":"RACEGR1N","dataset":"ADAE"},{"id":"ADAE.ETHNIC","group":7,"variable":"ETHNIC","dataset":"ADAE"},{"id":"ADAE.FAS1FL","group":7,"variable":"FAS1FL","dataset":"ADAE"},{"id":"ADAE.FAS2FL","group":7,"variable":"FAS2FL","dataset":"ADAE"},{"id":"ADAE.FAS3FL","group":7,"variable":"FAS3FL","dataset":"ADAE"},{"id":"ADAE.SAFFL","group":7,"variable":"SAFFL","dataset":"ADAE"},{"id":"ADAE.SAF1FL","group":7,"variable":"SAF1FL","dataset":"ADAE"},{"id":"ADAE.SAF2FL","group":7,"variable":"SAF2FL","dataset":"ADAE"},{"id":"ADAE.SAF3FL","group":7,"variable":"SAF3FL","dataset":"ADAE"},{"id":"ADAE.SAF4FL","group":7,"variable":"SAF4FL","dataset":"ADAE"},{"id":"ADAE.SAF5FL","group":7,"variable":"SAF5FL","dataset":"ADAE"},{"id":"ADAE.SAF6FL","group":7,"variable":"SAF6FL","dataset":"ADAE"},{"id":"ADAE.PPROT1FL","group":7,"variable":"PPROT1FL","dataset":"ADAE"},{"id":"ADAE.PPROT2FL","group":7,"variable":"PPROT2FL","dataset":"ADAE"},{"id":"ADAE.PPROT3FL","group":7,"variable":"PPROT3FL","dataset":"ADAE"},{"id":"ADAE.RANDFL","group":7,"variable":"RANDFL","dataset":"ADAE"},{"id":"ADAE.ENRLFL","group":7,"variable":"ENRLFL","dataset":"ADAE"},{"id":"ADAE.COVIDFL","group":7,"variable":"COVIDFL","dataset":"ADAE"},{"id":"ADAE.ARMCD","group":7,"variable":"ARMCD","dataset":"ADAE"},{"id":"ADAE.ARM","group":7,"variable":"ARM","dataset":"ADAE"},{"id":"ADAE.ARMN","group":7,"variable":"ARMN","dataset":"ADAE"},{"id":"ADAE.ACTARMCD","group":7,"variable":"ACTARMCD","dataset":"ADAE"},{"id":"ADAE.ACTARM","group":7,"variable":"ACTARM","dataset":"ADAE"},{"id":"ADAE.ACTARMN","group":7,"variable":"ACTARMN","dataset":"ADAE"},{"id":"ADAE.RFSTDTC","group":7,"variable":"RFSTDTC","dataset":"ADAE"},{"id":"ADAE.RFENDTC","group":7,"variable":"RFENDTC","dataset":"ADAE"},{"id":"ADAE.TRTSDT","group":7,"variable":"TRTSDT","dataset":"ADAE"},{"id":"ADAE.TRTEDT","group":7,"variable":"TRTEDT","dataset":"ADAE"},{"id":"ADAE.AESEQ","group":7,"variable":"AESEQ","dataset":"ADAE"},{"id":"AE.AESEQ","dataset":"AE","variable":"AESEQ","group":8},{"id":"ADAE.AEREFID","group":7,"variable":"AEREFID","dataset":"ADAE"},{"id":"AE.AEREFID","dataset":"AE","variable":"AEREFID","group":8},{"id":"ADAE.TRTP","group":7,"variable":"TRTP","dataset":"ADAE"},{"id":"ADAE.TRTPN","group":7,"variable":"TRTPN","dataset":"ADAE"},{"id":"ADAE.TRTA","group":7,"variable":"TRTA","dataset":"ADAE"},{"id":"ADAE.TRTAN","group":7,"variable":"TRTAN","dataset":"ADAE"},{"id":"ADAE.TRTLST","group":7,"variable":"TRTLST","dataset":"ADAE"},{"id":"ADAE.TRTLSTN","group":7,"variable":"TRTLSTN","dataset":"ADAE"},{"id":"ADAE.AETERM","group":7,"variable":"AETERM","dataset":"ADAE"},{"id":"AE.AETERM","dataset":"AE","variable":"AETERM","group":8},{"id":"ADAE.AEDECOD","group":7,"variable":"AEDECOD","dataset":"ADAE"},{"id":"AE.AEDECOD","dataset":"AE","variable":"AEDECOD","group":8},{"id":"ADAE.AEPTCD","group":7,"variable":"AEPTCD","dataset":"ADAE"},{"id":"AE.AEPTCD","dataset":"AE","variable":"AEPTCD","group":8},{"id":"ADAE.AEBODSYS","group":7,"variable":"AEBODSYS","dataset":"ADAE"},{"id":"AE.AEBODSYS","dataset":"AE","variable":"AEBODSYS","group":8},{"id":"ADAE.AEBDSYCD","group":7,"variable":"AEBDSYCD","dataset":"ADAE"},{"id":"AE.AEBDSYCD","dataset":"AE","variable":"AEBDSYCD","group":8},{"id":"ADAE.AELLT","group":7,"variable":"AELLT","dataset":"ADAE"},{"id":"AE.AELLT","dataset":"AE","variable":"AELLT","group":8},{"id":"ADAE.AELLTCD","group":7,"variable":"AELLTCD","dataset":"ADAE"},{"id":"AE.AELLTCD","dataset":"AE","variable":"AELLTCD","group":8},{"id":"ADAE.AEHLT","group":7,"variable":"AEHLT","dataset":"ADAE"},{"id":"AE.AEHLT","dataset":"AE","variable":"AEHLT","group":8},{"id":"ADAE.AEHLTCD","group":7,"variable":"AEHLTCD","dataset":"ADAE"},{"id":"AE.AEHLTCD","dataset":"AE","variable":"AEHLTCD","group":8},{"id":"ADAE.AEHLGT","group":7,"variable":"AEHLGT","dataset":"ADAE"},{"id":"AE.AEHLGT","dataset":"AE","variable":"AEHLGT","group":8},{"id":"ADAE.AEHLGTCD","group":7,"variable":"AEHLGTCD","dataset":"ADAE"},{"id":"AE.AEHLGTCD","dataset":"AE","variable":"AEHLGTCD","group":8},{"id":"ADAE.AESOC","group":7,"variable":"AESOC","dataset":"ADAE"},{"id":"AE.AESOC","dataset":"AE","variable":"AESOC","group":8},{"id":"ADAE.AESOCCD","group":7,"variable":"AESOCCD","dataset":"ADAE"},{"id":"AE.AESOCCD","dataset":"AE","variable":"AESOCCD","group":8},{"id":"ADAE.AEDICTV","group":7,"variable":"AEDICTV","dataset":"ADAE"},{"id":"SUPPAE.AEDICTV","dataset":"SUPPAE","variable":"AEDICTV","group":9},{"id":"ADAE.AECAT","group":7,"variable":"AECAT","dataset":"ADAE"},{"id":"AE.AECAT","dataset":"AE","variable":"AECAT","group":8},{"id":"ADAE.AESCAT","group":7,"variable":"AESCAT","dataset":"ADAE"},{"id":"AE.AESCAT","dataset":"AE","variable":"AESCAT","group":8},{"id":"ADAE.AESCATN","group":7,"variable":"AESCATN","dataset":"ADAE"},{"id":"ADAE.AETRT","group":7,"variable":"AETRT","dataset":"ADAE"},{"id":"SUPPAE.AETRT","dataset":"SUPPAE","variable":"AETRT","group":9},{"id":"ADAE.AECYCVID","group":7,"variable":"AECYCVID","dataset":"ADAE"},{"id":"SUPPAE.AECYCVID","dataset":"SUPPAE","variable":"AECYCVID","group":9},{"id":"ADAE.AESTDTC","group":7,"variable":"AESTDTC","dataset":"ADAE"},{"id":"AE.AESTDTC","dataset":"AE","variable":"AESTDTC","group":8},{"id":"ADAE.AEELPTIM","group":7,"variable":"AEELPTIM","dataset":"ADAE"},{"id":"SUPPAE.AEELPTIM","dataset":"SUPPAE","variable":"AEELPTIM","group":9},{"id":"ADAE.ASTDT","group":7,"variable":"ASTDT","dataset":"ADAE"},{"id":"ADAE.AESTDY","group":7,"variable":"AESTDY","dataset":"ADAE"},{"id":"AE.AESTDY","dataset":"AE","variable":"AESTDY","group":8},{"id":"ADAE.ASTDY","group":7,"variable":"ASTDY","dataset":"ADAE"},{"id":"ADAE.ASTDYG","group":7,"variable":"ASTDYG","dataset":"ADAE"},{"id":"ADAE.ASTDYGN","group":7,"variable":"ASTDYGN","dataset":"ADAE"},{"id":"ADAE.AEENDTC","group":7,"variable":"AEENDTC","dataset":"ADAE"},{"id":"AE.AEENDTC","dataset":"AE","variable":"AEENDTC","group":8},{"id":"ADAE.AENDT","group":7,"variable":"AENDT","dataset":"ADAE"},{"id":"ADAE.AEENDY","group":7,"variable":"AEENDY","dataset":"ADAE"},{"id":"AE.AEENDY","dataset":"AE","variable":"AEENDY","group":8},{"id":"ADAE.AEDTHDTC","group":7,"variable":"AEDTHDTC","dataset":"ADAE"},{"id":"SUPPAE.AEDTHDTC","dataset":"SUPPAE","variable":"AEDTHDTC","group":9},{"id":"ADAE.ADURN","group":7,"variable":"ADURN","dataset":"ADAE"},{"id":"ADAE.ADURU","group":7,"variable":"ADURU","dataset":"ADAE"},{"id":"ADAE.ADURNG","group":7,"variable":"ADURNG","dataset":"ADAE"},{"id":"ADAE.ADURNGN","group":7,"variable":"ADURNGN","dataset":"ADAE"},{"id":"ADAE.AEENRTPT","group":7,"variable":"AEENRTPT","dataset":"ADAE"},{"id":"AE.AEENRTPT","dataset":"AE","variable":"AEENRTPT","group":8},{"id":"ADAE.AEENTPT","group":7,"variable":"AEENTPT","dataset":"ADAE"},{"id":"AE.AEENTPT","dataset":"AE","variable":"AEENTPT","group":8},{"id":"ADAE.LSTDDT","group":7,"variable":"LSTDDT","dataset":"ADAE"},{"id":"ADAE.LSTDOSE","group":7,"variable":"LSTDOSE","dataset":"ADAE"},{"id":"ADAE.LSTDOSN","group":7,"variable":"LSTDOSN","dataset":"ADAE"},{"id":"ADAE.ANL01FL","group":7,"variable":"ANL01FL","dataset":"ADAE"},{"id":"ADAE.ANL01RS","group":7,"variable":"ANL01RS","dataset":"ADAE"},{"id":"ADAE.ANL02FL","group":7,"variable":"ANL02FL","dataset":"ADAE"},{"id":"ADAE.ANL03FL","group":7,"variable":"ANL03FL","dataset":"ADAE"},{"id":"ADAE.ANL04FL","group":7,"variable":"ANL04FL","dataset":"ADAE"},{"id":"ADAE.AEMAAE","group":7,"variable":"AEMAAE","dataset":"ADAE"},{"id":"SUPPAE.AEMAAE","dataset":"SUPPAE","variable":"AEMAAE","group":9},{"id":"ADAE.AESER","group":7,"variable":"AESER","dataset":"ADAE"},{"id":"AE.AESER","dataset":"AE","variable":"AESER","group":8},{"id":"ADAE.AESHOSP","group":7,"variable":"AESHOSP","dataset":"ADAE"},{"id":"AE.AESHOSP","dataset":"AE","variable":"AESHOSP","group":8},{"id":"ADAE.AESDISAB","group":7,"variable":"AESDISAB","dataset":"ADAE"},{"id":"AE.AESDISAB","dataset":"AE","variable":"AESDISAB","group":8},{"id":"ADAE.AESDTH","group":7,"variable":"AESDTH","dataset":"ADAE"},{"id":"AE.AESDTH","dataset":"AE","variable":"AESDTH","group":8},{"id":"ADAE.AESCONG","group":7,"variable":"AESCONG","dataset":"ADAE"},{"id":"AE.AESCONG","dataset":"AE","variable":"AESCONG","group":8},{"id":"ADAE.AESMIE","group":7,"variable":"AESMIE","dataset":"ADAE"},{"id":"AE.AESMIE","dataset":"AE","variable":"AESMIE","group":8},{"id":"ADAE.AESLIFE","group":7,"variable":"AESLIFE","dataset":"ADAE"},{"id":"AE.AESLIFE","dataset":"AE","variable":"AESLIFE","group":8},{"id":"ADAE.LISTSERN","group":7,"variable":"LISTSERN","dataset":"ADAE"},{"id":"ADAE.AESEV","group":7,"variable":"AESEV","dataset":"ADAE"},{"id":"AE.AESEV","dataset":"AE","variable":"AESEV","group":8},{"id":"ADAE.AESEVN","group":7,"variable":"AESEVN","dataset":"ADAE"},{"id":"ADAE.ASEVGR","group":7,"variable":"ASEVGR","dataset":"ADAE"},{"id":"ADAE.ASEVGRN","group":7,"variable":"ASEVGRN","dataset":"ADAE"},{"id":"ADAE.AELAT","group":7,"variable":"AELAT","dataset":"ADAE"},{"id":"AE.AELAT","dataset":"AE","variable":"AELAT","group":8},{"id":"ADAE.AEDIR","group":7,"variable":"AEDIR","dataset":"ADAE"},{"id":"AE.AEDIR","dataset":"AE","variable":"AEDIR","group":8},{"id":"ADAE.AEREL","group":7,"variable":"AEREL","dataset":"ADAE"},{"id":"AE.AEREL","dataset":"AE","variable":"AEREL","group":8},{"id":"ADAE.AERELN","group":7,"variable":"AERELN","dataset":"ADAE"},{"id":"ADAE.AERELPR","group":7,"variable":"AERELPR","dataset":"ADAE"},{"id":"SUPPAE.AERELPR","dataset":"SUPPAE","variable":"AERELPR","group":9},{"id":"ADAE.AERELNST","group":7,"variable":"AERELNST","dataset":"ADAE"},{"id":"AE.AERELNST","dataset":"AE","variable":"AERELNST","group":8},{"id":"ADAE.AREL","group":7,"variable":"AREL","dataset":"ADAE"},{"id":"ADAE.ARELN","group":7,"variable":"ARELN","dataset":"ADAE"},{"id":"ADAE.ARELNST","group":7,"variable":"ARELNST","dataset":"ADAE"},{"id":"ADAE.AEACN","group":7,"variable":"AEACN","dataset":"ADAE"},{"id":"AE.AEACN","dataset":"AE","variable":"AEACN","group":8},{"id":"ADAE.AEACNNO","group":7,"variable":"AEACNNO","dataset":"ADAE"},{"id":"SUPPAE.AEACNNO","dataset":"SUPPAE","variable":"AEACNNO","group":9},{"id":"ADAE.AECONTRT","group":7,"variable":"AECONTRT","dataset":"ADAE"},{"id":"AE.AECONTRT","dataset":"AE","variable":"AECONTRT","group":8},{"id":"ADAE.AEACHOS","group":7,"variable":"AEACHOS","dataset":"ADAE"},{"id":"SUPPAE.AEACHOS","dataset":"SUPPAE","variable":"AEACHOS","group":9},{"id":"ADAE.AEACHCP","group":7,"variable":"AEACHCP","dataset":"ADAE"},{"id":"SUPPAE.AEACHCP","dataset":"SUPPAE","variable":"AEACHCP","group":9},{"id":"ADAE.LISTACTK","group":7,"variable":"LISTACTK","dataset":"ADAE"},{"id":"ADAE.AEDIS","group":7,"variable":"AEDIS","dataset":"ADAE"},{"id":"SUPPAE.AEDIS","dataset":"SUPPAE","variable":"AEDIS","group":9},{"id":"ADAE.AEOUT","group":7,"variable":"AEOUT","dataset":"ADAE"},{"id":"AE.AEOUT","dataset":"AE","variable":"AEOUT","group":8},{"id":"ADAE.MAXMS","group":7,"variable":"MAXMS","dataset":"ADAE"},{"id":"ADAE.MAXMSU","group":7,"variable":"MAXMSU","dataset":"ADAE"},{"id":"ADAE.VSORRES","group":7,"variable":"VSORRES","dataset":"ADAE"},{"id":"VS.VSORRES","dataset":"VS","variable":"VSORRES","group":10},{"id":"ADAE.VSORRESU","group":7,"variable":"VSORRESU","dataset":"ADAE"},{"id":"VS.VSORRESU","dataset":"VS","variable":"VSORRESU","group":10},{"id":"ADAE.VSLOC","group":7,"variable":"VSLOC","dataset":"ADAE"},{"id":"VS.VSLOC","dataset":"VS","variable":"VSLOC","group":10},{"id":"ADAE.LIINMSTP","group":7,"variable":"LIINMSTP","dataset":"ADAE"},{"id":"ADAE.AELOC","group":7,"variable":"AELOC","dataset":"ADAE"},{"id":"AE.AELOC","dataset":"AE","variable":"AELOC","group":8},{"id":"ADCM.STUDYID","group":11,"variable":"STUDYID","dataset":"ADCM"},{"id":"CM.STUDYID","dataset":"CM","variable":"STUDYID","group":12},{"id":"ADCM.USUBJID","group":11,"variable":"USUBJID","dataset":"ADCM"},{"id":"CM.USUBJID","dataset":"CM","variable":"USUBJID","group":12},{"id":"ADCM.ASEQ","group":11,"variable":"ASEQ","dataset":"ADCM"},{"id":"ADCM.SUBJID","group":11,"variable":"SUBJID","dataset":"ADCM"},{"id":"DM.SUBJID","dataset":"DM","variable":"SUBJID","group":4},{"id":"ADCM.SITEID","group":11,"variable":"SITEID","dataset":"ADCM"},{"id":"DM.SITEID","dataset":"DM","variable":"SITEID","group":4},{"id":"ADCM.COUNTRY","group":11,"variable":"COUNTRY","dataset":"ADCM"},{"id":"ADCM.AGE","group":11,"variable":"AGE","dataset":"ADCM"},{"id":"ADCM.AGEU","group":11,"variable":"AGEU","dataset":"ADCM"},{"id":"ADCM.SEX","group":11,"variable":"SEX","dataset":"ADCM"},{"id":"ADCM.RACE","group":11,"variable":"RACE","dataset":"ADCM"},{"id":"ADCM.FAS1FL","group":11,"variable":"FAS1FL","dataset":"ADCM"},{"id":"ADCM.FAS2FL","group":11,"variable":"FAS2FL","dataset":"ADCM"},{"id":"ADCM.FAS3FL","group":11,"variable":"FAS3FL","dataset":"ADCM"},{"id":"ADCM.SAFFL","group":11,"variable":"SAFFL","dataset":"ADCM"},{"id":"ADCM.SAF1FL","group":11,"variable":"SAF1FL","dataset":"ADCM"},{"id":"ADCM.SAF2FL","group":11,"variable":"SAF2FL","dataset":"ADCM"},{"id":"ADCM.SAF3FL","group":11,"variable":"SAF3FL","dataset":"ADCM"},{"id":"ADCM.SAF4FL","group":11,"variable":"SAF4FL","dataset":"ADCM"},{"id":"ADCM.SAF5FL","group":11,"variable":"SAF5FL","dataset":"ADCM"},{"id":"ADCM.SAF6FL","group":11,"variable":"SAF6FL","dataset":"ADCM"},{"id":"ADCM.RANDFL","group":11,"variable":"RANDFL","dataset":"ADCM"},{"id":"ADCM.ENRLFL","group":11,"variable":"ENRLFL","dataset":"ADCM"},{"id":"ADCM.ARM","group":11,"variable":"ARM","dataset":"ADCM"},{"id":"ADCM.ACTARM","group":11,"variable":"ACTARM","dataset":"ADCM"},{"id":"ADCM.CMSEQ","group":11,"variable":"CMSEQ","dataset":"ADCM"},{"id":"CM.CMSEQ","dataset":"CM","variable":"CMSEQ","group":12},{"id":"ADCM.CMSPID","group":11,"variable":"CMSPID","dataset":"ADCM"},{"id":"CM.CMSPID","dataset":"CM","variable":"CMSPID","group":12},{"id":"ADCM.CMTRT","group":11,"variable":"CMTRT","dataset":"ADCM"},{"id":"CM.CMTRT","dataset":"CM","variable":"CMTRT","group":12},{"id":"ADCM.CMDECOD","group":11,"variable":"CMDECOD","dataset":"ADCM"},{"id":"CM.CMDECOD","dataset":"CM","variable":"CMDECOD","group":12},{"id":"ADCM.CMSEQ1","group":11,"variable":"CMSEQ1","dataset":"ADCM"},{"id":"SUPPCM.CMSEQ1","dataset":"SUPPCM","variable":"CMSEQ1","group":13},{"id":"ADCM.CMSEQ2","group":11,"variable":"CMSEQ2","dataset":"ADCM"},{"id":"SUPPCM.CMSEQ2","dataset":"SUPPCM","variable":"CMSEQ2","group":13},{"id":"ADCM.ATC1CD","group":11,"variable":"ATC1CD","dataset":"ADCM"},{"id":"ADCM.ATC2CD","group":11,"variable":"ATC2CD","dataset":"ADCM"},{"id":"ADCM.ATC3CD","group":11,"variable":"ATC3CD","dataset":"ADCM"},{"id":"ADCM.ATC4CD","group":11,"variable":"ATC4CD","dataset":"ADCM"},{"id":"ADCM.ATC1","group":11,"variable":"ATC1","dataset":"ADCM"},{"id":"ADCM.ATC2","group":11,"variable":"ATC2","dataset":"ADCM"},{"id":"ADCM.ATC3","group":11,"variable":"ATC3","dataset":"ADCM"},{"id":"ADCM.ATC4","group":11,"variable":"ATC4","dataset":"ADCM"},{"id":"ADCM.CMDICTV","group":11,"variable":"CMDICTV","dataset":"ADCM"},{"id":"SUPPCM.CMDICTV","dataset":"SUPPCM","variable":"CMDICTV","group":13},{"id":"ADCM.CMSTDTC","group":11,"variable":"CMSTDTC","dataset":"ADCM"},{"id":"CM.CMSTDTC","dataset":"CM","variable":"CMSTDTC","group":12},{"id":"ADCM.CMSTDY","group":11,"variable":"CMSTDY","dataset":"ADCM"},{"id":"CM.CMSTDY","dataset":"CM","variable":"CMSTDY","group":12},{"id":"ADCM.CMENDTC","group":11,"variable":"CMENDTC","dataset":"ADCM"},{"id":"CM.CMENDTC","dataset":"CM","variable":"CMENDTC","group":12},{"id":"ADCM.CMENDY","group":11,"variable":"CMENDY","dataset":"ADCM"},{"id":"CM.CMENDY","dataset":"CM","variable":"CMENDY","group":12},{"id":"ADCM.CMENRTPT","group":11,"variable":"CMENRTPT","dataset":"ADCM"},{"id":"CM.CMENRTPT","dataset":"CM","variable":"CMENRTPT","group":12},{"id":"ADCM.CMENTPT","group":11,"variable":"CMENTPT","dataset":"ADCM"},{"id":"CM.CMENTPT","dataset":"CM","variable":"CMENTPT","group":12},{"id":"ADCM.APHASE","group":11,"variable":"APHASE","dataset":"ADCM"},{"id":"CM.EPOCH","dataset":"CM","variable":"EPOCH","group":12},{"id":"ADCM.APHASEN","group":11,"variable":"APHASEN","dataset":"ADCM"},{"id":"ADCM.ACAT1","group":11,"variable":"ACAT1","dataset":"ADCM"},{"id":"ADCM.CMPROHIB","group":11,"variable":"CMPROHIB","dataset":"ADCM"},{"id":"SUPPCM.CMPROHIB","dataset":"SUPPCM","variable":"CMPROHIB","group":13},{"id":"ADCM.CMPROPHY","group":11,"variable":"CMPROPHY","dataset":"ADCM"},{"id":"SUPPCM.CMPROPHY","dataset":"SUPPCM","variable":"CMPROPHY","group":13},{"id":"ADCM.SDG01NAM","group":11,"variable":"SDG01NAM","dataset":"ADCM"},{"id":"ADCM.SDG01CD","group":11,"variable":"SDG01CD","dataset":"ADCM"},{"id":"ADCM.SDG01SC","group":11,"variable":"SDG01SC","dataset":"ADCM"},{"id":"ADCM.SDG01SCN","group":11,"variable":"SDG01SCN","dataset":"ADCM"},{"id":"ADCM.SDG02NAM","group":11,"variable":"SDG02NAM","dataset":"ADCM"},{"id":"ADCM.SDG02CD","group":11,"variable":"SDG02CD","dataset":"ADCM"},{"id":"ADCM.SDG02SC","group":11,"variable":"SDG02SC","dataset":"ADCM"},{"id":"ADCM.SDG02SCN","group":11,"variable":"SDG02SCN","dataset":"ADCM"},{"id":"ADCM.CDG01NAM","group":11,"variable":"CDG01NAM","dataset":"ADCM"},{"id":"ADCM.CDG01CD","group":11,"variable":"CDG01CD","dataset":"ADCM"},{"id":"ADCM.CDG02NAM","group":11,"variable":"CDG02NAM","dataset":"ADCM"},{"id":"ADCM.CDG02CD","group":11,"variable":"CDG02CD","dataset":"ADCM"},{"id":"ADCM.CDG03NAM","group":11,"variable":"CDG03NAM","dataset":"ADCM"},{"id":"ADCM.CDG03CD","group":11,"variable":"CDG03CD","dataset":"ADCM"},{"id":"ADCM.CDG04NAM","group":11,"variable":"CDG04NAM","dataset":"ADCM"},{"id":"ADCM.CDG04CD","group":11,"variable":"CDG04CD","dataset":"ADCM"},{"id":"ADCM.CDG05NAM","group":11,"variable":"CDG05NAM","dataset":"ADCM"},{"id":"ADCM.CDG05CD","group":11,"variable":"CDG05CD","dataset":"ADCM"},{"id":"ADCM.CDG06NAM","group":11,"variable":"CDG06NAM","dataset":"ADCM"},{"id":"ADCM.CDG06CD","group":11,"variable":"CDG06CD","dataset":"ADCM"},{"id":"ADCM.CDG07NAM","group":11,"variable":"CDG07NAM","dataset":"ADCM"},{"id":"ADCM.CDG07CD","group":11,"variable":"CDG07CD","dataset":"ADCM"},{"id":"ADCM.CDG08NAM","group":11,"variable":"CDG08NAM","dataset":"ADCM"},{"id":"ADCM.CDG08CD","group":11,"variable":"CDG08CD","dataset":"ADCM"},{"id":"ADCM.CDG09NAM","group":11,"variable":"CDG09NAM","dataset":"ADCM"},{"id":"ADCM.CDG09CD","group":11,"variable":"CDG09CD","dataset":"ADCM"},{"id":"ADCM.CDG10NAM","group":11,"variable":"CDG10NAM","dataset":"ADCM"},{"id":"ADCM.CDG10CD","group":11,"variable":"CDG10CD","dataset":"ADCM"},{"id":"ADCM.CDG11NAM","group":11,"variable":"CDG11NAM","dataset":"ADCM"},{"id":"ADCM.CDG11CD","group":11,"variable":"CDG11CD","dataset":"ADCM"},{"id":"ADCM.CDG12NAM","group":11,"variable":"CDG12NAM","dataset":"ADCM"},{"id":"ADCM.CDG12CD","group":11,"variable":"CDG12CD","dataset":"ADCM"},{"id":"ADCM.CDG13NAM","group":11,"variable":"CDG13NAM","dataset":"ADCM"},{"id":"ADCM.CDG13CD","group":11,"variable":"CDG13CD","dataset":"ADCM"},{"id":"ADDV.STUDYID","group":14,"variable":"STUDYID","dataset":"ADDV"},{"id":"DV.STUDYID or LDV","dataset":"DV","variable":"STUDYID or LDV","group":15},{"id":"ADDV.USUBJID","group":14,"variable":"USUBJID","dataset":"ADDV"},{"id":"DV.USUBJID or LDV","dataset":"DV","variable":"USUBJID or LDV","group":15},{"id":"ADDV.ASEQ","group":14,"variable":"ASEQ","dataset":"ADDV"},{"id":"ADDV.SUBJID","group":14,"variable":"SUBJID","dataset":"ADDV"},{"id":"ADDV.SITEID","group":14,"variable":"SITEID","dataset":"ADDV"},{"id":"ADDV.COUNTRY","group":14,"variable":"COUNTRY","dataset":"ADDV"},{"id":"ADDV.BRTHDT","group":14,"variable":"BRTHDT","dataset":"ADDV"},{"id":"ADDV.AGE","group":14,"variable":"AGE","dataset":"ADDV"},{"id":"ADDV.AGEU","group":14,"variable":"AGEU","dataset":"ADDV"},{"id":"ADDV.AAGE","group":14,"variable":"AAGE","dataset":"ADDV"},{"id":"ADDV.AAGEU","group":14,"variable":"AAGEU","dataset":"ADDV"},{"id":"ADDV.GESTAGE","group":14,"variable":"GESTAGE","dataset":"ADDV"},{"id":"ADDV.GESTAGEU","group":14,"variable":"GESTAGEU","dataset":"ADDV"},{"id":"ADDV.GAGECAT","group":14,"variable":"GAGECAT","dataset":"ADDV"},{"id":"ADDV.GAGECATN","group":14,"variable":"GAGECATN","dataset":"ADDV"},{"id":"ADDV.SEX","group":14,"variable":"SEX","dataset":"ADDV"},{"id":"ADDV.RACE","group":14,"variable":"RACE","dataset":"ADDV"},{"id":"ADDV.RACEGR1","group":14,"variable":"RACEGR1","dataset":"ADDV"},{"id":"ADDV.RACEGR1N","group":14,"variable":"RACEGR1N","dataset":"ADDV"},{"id":"ADDV.ETHNIC","group":14,"variable":"ETHNIC","dataset":"ADDV"},{"id":"ADDV.FAS1FL","group":14,"variable":"FAS1FL","dataset":"ADDV"},{"id":"ADDV.FAS2FL","group":14,"variable":"FAS2FL","dataset":"ADDV"},{"id":"ADDV.FAS3FL","group":14,"variable":"FAS3FL","dataset":"ADDV"},{"id":"ADDV.SAFFL","group":14,"variable":"SAFFL","dataset":"ADDV"},{"id":"ADDV.SAF1FL","group":14,"variable":"SAF1FL","dataset":"ADDV"},{"id":"ADDV.SAF2FL","group":14,"variable":"SAF2FL","dataset":"ADDV"},{"id":"ADDV.SAF3FL","group":14,"variable":"SAF3FL","dataset":"ADDV"},{"id":"ADDV.SAF4FL","group":14,"variable":"SAF4FL","dataset":"ADDV"},{"id":"ADDV.SAF5FL","group":14,"variable":"SAF5FL","dataset":"ADDV"},{"id":"ADDV.SAF6FL","group":14,"variable":"SAF6FL","dataset":"ADDV"},{"id":"ADDV.PPROT1FL","group":14,"variable":"PPROT1FL","dataset":"ADDV"},{"id":"ADDV.PPROT2FL","group":14,"variable":"PPROT2FL","dataset":"ADDV"},{"id":"ADDV.PPROT3FL","group":14,"variable":"PPROT3FL","dataset":"ADDV"},{"id":"ADDV.RANDFL","group":14,"variable":"RANDFL","dataset":"ADDV"},{"id":"ADDV.ENRLFL","group":14,"variable":"ENRLFL","dataset":"ADDV"},{"id":"ADDV.COVIDFL","group":14,"variable":"COVIDFL","dataset":"ADDV"},{"id":"ADDV.ARMCD","group":14,"variable":"ARMCD","dataset":"ADDV"},{"id":"ADDV.ARM","group":14,"variable":"ARM","dataset":"ADDV"},{"id":"ADDV.ARMN","group":14,"variable":"ARMN","dataset":"ADDV"},{"id":"ADDV.ACTARMCD","group":14,"variable":"ACTARMCD","dataset":"ADDV"},{"id":"ADDV.ACTARM","group":14,"variable":"ACTARM","dataset":"ADDV"},{"id":"ADDV.ACTARMN","group":14,"variable":"ACTARMN","dataset":"ADDV"},{"id":"ADDV.RFSTDTC","group":14,"variable":"RFSTDTC","dataset":"ADDV"},{"id":"ADDV.RFENDTC","group":14,"variable":"RFENDTC","dataset":"ADDV"},{"id":"ADDV.TRTSDT","group":14,"variable":"TRTSDT","dataset":"ADDV"},{"id":"ADDV.TRTEDT","group":14,"variable":"TRTEDT","dataset":"ADDV"},{"id":"ADDV.DVSPID","group":14,"variable":"DVSPID","dataset":"ADDV"},{"id":"DV.DVSPID LDV or DVSPID in Z4","dataset":"DV","variable":"DVSPID LDV or DVSPID in Z4","group":15},{"id":"ADDV.DVTERM","group":14,"variable":"DVTERM","dataset":"ADDV"},{"id":"LDV.DVTERM or DV","dataset":"LDV","variable":"DVTERM or DV","group":16},{"id":"ADDV.DVDECOD","group":14,"variable":"DVDECOD","dataset":"ADDV"},{"id":"LDV.DVDECOD or DV","dataset":"LDV","variable":"DVDECOD or DV","group":16},{"id":"ADDV.DVCAT","group":14,"variable":"DVCAT","dataset":"ADDV"},{"id":"LDV.DVCAT or DV","dataset":"LDV","variable":"DVCAT or DV","group":16},{"id":"ADDV.DVSOURCE","group":14,"variable":"DVSOURCE","dataset":"ADDV"},{"id":"SUPPDV.DVSOURCE or LDV","dataset":"SUPPDV","variable":"DVSOURCE or LDV","group":17},{"id":"ADDV.VISITNUM","group":14,"variable":"VISITNUM","dataset":"ADDV"},{"id":"LDV.VISITNUM or DV","dataset":"LDV","variable":"VISITNUM or DV","group":16},{"id":"ADDV.VISIT","group":14,"variable":"VISIT","dataset":"ADDV"},{"id":"LDV.VISIT or DV","dataset":"LDV","variable":"VISIT or DV","group":16},{"id":"ADDV.DVEPRELI","group":14,"variable":"DVEPRELI","dataset":"ADDV"},{"id":"SUPPDV.DVEPRELI or LDV","dataset":"SUPPDV","variable":"DVEPRELI or LDV","group":17},{"id":"ADDV.DVIMPACT","group":14,"variable":"DVIMPACT","dataset":"ADDV"},{"id":"SUPPDV.DVIMPACT or LDV","dataset":"SUPPDV","variable":"DVIMPACT or LDV","group":17},{"id":"ADDV.DVCM","group":14,"variable":"DVCM","dataset":"ADDV"},{"id":"LDV.DVCM or SUPPDV","dataset":"LDV","variable":"DVCM or SUPPDV","group":16},{"id":"ADDV.DVCM1","group":14,"variable":"DVCM1","dataset":"ADDV"},{"id":"SUPPDV.DVCM1","dataset":"SUPPDV","variable":"DVCM1","group":17},{"id":"ADDV.DVCM2","group":14,"variable":"DVCM2","dataset":"ADDV"},{"id":"SUPPDV.DVCM2","dataset":"SUPPDV","variable":"DVCM2","group":17},{"id":"ADDV.DVCM3","group":14,"variable":"DVCM3","dataset":"ADDV"},{"id":"SUPPDV.DVCM3","dataset":"SUPPDV","variable":"DVCM3","group":17},{"id":"ADDV.DVCM4","group":14,"variable":"DVCM4","dataset":"ADDV"},{"id":"SUPPDV.DVCM4","dataset":"SUPPDV","variable":"DVCM4","group":17},{"id":"ADDV.DVCM5","group":14,"variable":"DVCM5","dataset":"ADDV"},{"id":"SUPPDV.DVCM5","dataset":"SUPPDV","variable":"DVCM5","group":17},{"id":"ADDV.DVCM6","group":14,"variable":"DVCM6","dataset":"ADDV"},{"id":"SUPPDV.DVCM6","dataset":"SUPPDV","variable":"DVCM6","group":17},{"id":"ADDV.DVCM7","group":14,"variable":"DVCM7","dataset":"ADDV"},{"id":"SUPPDV.DVCM7","dataset":"SUPPDV","variable":"DVCM7","group":17},{"id":"ADDV.DVCATCH","group":14,"variable":"DVCATCH","dataset":"ADDV"},{"id":"LDV.DVCATCH","dataset":"LDV","variable":"DVCATCH","group":16},{"id":"ADDV.IETESTCD","group":14,"variable":"IETESTCD","dataset":"ADDV"},{"id":"LDV.IETESTCD","dataset":"LDV","variable":"IETESTCD","group":16},{"id":"ADEX.STUDYID","group":18,"variable":"STUDYID","dataset":"ADEX"},{"id":"EX.STUDYID","dataset":"EX","variable":"STUDYID","group":19},{"id":"ADEX.USUBJID","group":18,"variable":"USUBJID","dataset":"ADEX"},{"id":"EX.USUBJID","dataset":"EX","variable":"USUBJID","group":19},{"id":"ADEX.ASEQ","group":18,"variable":"ASEQ","dataset":"ADEX"},{"id":"ADEX.SUBJID","group":18,"variable":"SUBJID","dataset":"ADEX"},{"id":"ADEX.SITEID","group":18,"variable":"SITEID","dataset":"ADEX"},{"id":"ADEX.COUNTRY","group":18,"variable":"COUNTRY","dataset":"ADEX"},{"id":"ADEX.BRTHDT","group":18,"variable":"BRTHDT","dataset":"ADEX"},{"id":"ADEX.AGE","group":18,"variable":"AGE","dataset":"ADEX"},{"id":"ADEX.AGEU","group":18,"variable":"AGEU","dataset":"ADEX"},{"id":"ADEX.AAGE","group":18,"variable":"AAGE","dataset":"ADEX"},{"id":"ADEX.AAGEU","group":18,"variable":"AAGEU","dataset":"ADEX"},{"id":"ADEX.GESTAGE","group":18,"variable":"GESTAGE","dataset":"ADEX"},{"id":"ADEX.GESTAGEU","group":18,"variable":"GESTAGEU","dataset":"ADEX"},{"id":"ADEX.GAGECAT","group":18,"variable":"GAGECAT","dataset":"ADEX"},{"id":"ADEX.GAGECATN","group":18,"variable":"GAGECATN","dataset":"ADEX"},{"id":"ADEX.SEX","group":18,"variable":"SEX","dataset":"ADEX"},{"id":"ADEX.RACE","group":18,"variable":"RACE","dataset":"ADEX"},{"id":"ADEX.RACEGR1","group":18,"variable":"RACEGR1","dataset":"ADEX"},{"id":"ADEX.RACEGR1N","group":18,"variable":"RACEGR1N","dataset":"ADEX"},{"id":"ADEX.ETHNIC","group":18,"variable":"ETHNIC","dataset":"ADEX"},{"id":"ADEX.FAS1FL","group":18,"variable":"FAS1FL","dataset":"ADEX"},{"id":"ADEX.FAS2FL","group":18,"variable":"FAS2FL","dataset":"ADEX"},{"id":"ADEX.FAS3FL","group":18,"variable":"FAS3FL","dataset":"ADEX"},{"id":"ADEX.SAFFL","group":18,"variable":"SAFFL","dataset":"ADEX"},{"id":"ADEX.SAF1FL","group":18,"variable":"SAF1FL","dataset":"ADEX"},{"id":"ADEX.SAF2FL","group":18,"variable":"SAF2FL","dataset":"ADEX"},{"id":"ADEX.SAF3FL","group":18,"variable":"SAF3FL","dataset":"ADEX"},{"id":"ADEX.SAF4FL","group":18,"variable":"SAF4FL","dataset":"ADEX"},{"id":"ADEX.SAF5FL","group":18,"variable":"SAF5FL","dataset":"ADEX"},{"id":"ADEX.SAF6FL","group":18,"variable":"SAF6FL","dataset":"ADEX"},{"id":"ADEX.PPROT1FL","group":18,"variable":"PPROT1FL","dataset":"ADEX"},{"id":"ADEX.PPROT2FL","group":18,"variable":"PPROT2FL","dataset":"ADEX"},{"id":"ADEX.PPROT3FL","group":18,"variable":"PPROT3FL","dataset":"ADEX"},{"id":"ADEX.RANDFL","group":18,"variable":"RANDFL","dataset":"ADEX"},{"id":"ADEX.ENRLFL","group":18,"variable":"ENRLFL","dataset":"ADEX"},{"id":"ADEX.COVIDFL","group":18,"variable":"COVIDFL","dataset":"ADEX"},{"id":"ADEX.ARMCD","group":18,"variable":"ARMCD","dataset":"ADEX"},{"id":"ADEX.ARM","group":18,"variable":"ARM","dataset":"ADEX"},{"id":"ADEX.ARMN","group":18,"variable":"ARMN","dataset":"ADEX"},{"id":"ADEX.ACTARMCD","group":18,"variable":"ACTARMCD","dataset":"ADEX"},{"id":"ADEX.ACTARM","group":18,"variable":"ACTARM","dataset":"ADEX"},{"id":"ADEX.ACTARMN","group":18,"variable":"ACTARMN","dataset":"ADEX"},{"id":"ADEX.RFSTDTC","group":18,"variable":"RFSTDTC","dataset":"ADEX"},{"id":"ADEX.RFENDTC","group":18,"variable":"RFENDTC","dataset":"ADEX"},{"id":"ADEX.TRTSDT","group":18,"variable":"TRTSDT","dataset":"ADEX"},{"id":"ADEX.TRTEDT","group":18,"variable":"TRTEDT","dataset":"ADEX"},{"id":"ADEX.EXSEQ","group":18,"variable":"EXSEQ","dataset":"ADEX"},{"id":"EX.EXSEQ","dataset":"EX","variable":"EXSEQ","group":19},{"id":"ADEX.EXREFID","group":18,"variable":"EXREFID","dataset":"ADEX"},{"id":"EX.EXREFID","dataset":"EX","variable":"EXREFID","group":19},{"id":"ADEX.EXTRT","group":18,"variable":"EXTRT","dataset":"ADEX"},{"id":"EX.EXTRT","dataset":"EX","variable":"EXTRT","group":19},{"id":"ADEX.EXDOSE","group":18,"variable":"EXDOSE","dataset":"ADEX"},{"id":"EX.EXDOSE","dataset":"EX","variable":"EXDOSE","group":19},{"id":"ADEX.EXDOSU","group":18,"variable":"EXDOSU","dataset":"ADEX"},{"id":"EX.EXDOSU","dataset":"EX","variable":"EXDOSU","group":19},{"id":"ADEX.EXSTDTC","group":18,"variable":"EXSTDTC","dataset":"ADEX"},{"id":"EX.EXSTDTC","dataset":"EX","variable":"EXSTDTC","group":19},{"id":"ADEX.ASTDT","group":18,"variable":"ASTDT","dataset":"ADEX"},{"id":"ADEX.EXSTDY","group":18,"variable":"EXSTDY","dataset":"ADEX"},{"id":"EX.EXSTDY","dataset":"EX","variable":"EXSTDY","group":19},{"id":"ADEX.ASTDY","group":18,"variable":"ASTDY","dataset":"ADEX"},{"id":"ADEX.EXENDTC","group":18,"variable":"EXENDTC","dataset":"ADEX"},{"id":"EX.EXENDTC","dataset":"EX","variable":"EXENDTC","group":19},{"id":"ADEX.AENDT","group":18,"variable":"AENDT","dataset":"ADEX"},{"id":"ADEX.EXENDY","group":18,"variable":"EXENDY","dataset":"ADEX"},{"id":"EX.EXENDY","dataset":"EX","variable":"EXENDY","group":19},{"id":"ADEX.AENDY","group":18,"variable":"AENDY","dataset":"ADEX"},{"id":"ADEX.VISITNUM","group":18,"variable":"VISITNUM","dataset":"ADEX"},{"id":"EX.VISITNUM","dataset":"EX","variable":"VISITNUM","group":19},{"id":"ADEX.VISIT","group":18,"variable":"VISIT","dataset":"ADEX"},{"id":"EX.VISIT","dataset":"EX","variable":"VISIT","group":19},{"id":"ADEX.EXROUTE","group":18,"variable":"EXROUTE","dataset":"ADEX"},{"id":"EX.EXROUTE","dataset":"EX","variable":"EXROUTE","group":19},{"id":"ADEX.EXLOC","group":18,"variable":"EXLOC","dataset":"ADEX"},{"id":"EX.EXLOC","dataset":"EX","variable":"EXLOC","group":19},{"id":"ADEX.EXDIR","group":18,"variable":"EXDIR","dataset":"ADEX"},{"id":"EX.EXDIR","dataset":"EX","variable":"EXDIR","group":19},{"id":"ADEX.EXLAT","group":18,"variable":"EXLAT","dataset":"ADEX"},{"id":"EX.EXLAT","dataset":"EX","variable":"EXLAT","group":19},{"id":"ADEX.EXLOT","group":18,"variable":"EXLOT","dataset":"ADEX"},{"id":"EX.EXLOT","dataset":"EX","variable":"EXLOT","group":19},{"id":"ADPSL.STUDYID","group":2,"variable":"STUDYID","dataset":"ADPSL"},{"id":"DM.STUDYID","dataset":"DM","variable":"STUDYID","group":4},{"id":"ADPSL.USUBJID","group":2,"variable":"USUBJID","dataset":"ADPSL"},{"id":"DM.USUBJID","dataset":"DM","variable":"USUBJID","group":4},{"id":"ADPSL.SUBJID","group":2,"variable":"SUBJID","dataset":"ADPSL"},{"id":"ADPSL.SITEID","group":2,"variable":"SITEID","dataset":"ADPSL"},{"id":"ADPSL.COUNTRY","group":2,"variable":"COUNTRY","dataset":"ADPSL"},{"id":"DM.COUNTRY","dataset":"DM","variable":"COUNTRY","group":4},{"id":"ADPSL.BRTHDT","group":2,"variable":"BRTHDT","dataset":"ADPSL"},{"id":"ADPSL.BRTHDTC","group":2,"variable":"BRTHDTC","dataset":"ADPSL"},{"id":"DM.BRTHDTC","dataset":"DM","variable":"BRTHDTC","group":4},{"id":"ADPSL.AGE","group":2,"variable":"AGE","dataset":"ADPSL"},{"id":"DM.AGE","dataset":"DM","variable":"AGE","group":4},{"id":"ADPSL.AGEU","group":2,"variable":"AGEU","dataset":"ADPSL"},{"id":"DM.AGEU","dataset":"DM","variable":"AGEU","group":4},{"id":"ADPSL.AAGE","group":2,"variable":"AAGE","dataset":"ADPSL"},{"id":"ADPSL.AAGEU","group":2,"variable":"AAGEU","dataset":"ADPSL"},{"id":"ADPSL.GESTAGE","group":2,"variable":"GESTAGE","dataset":"ADPSL"},{"id":"SUPPDM.GESTAGE","dataset":"SUPPDM","variable":"GESTAGE","group":3},{"id":"ADPSL.GESTAGEU","group":2,"variable":"GESTAGEU","dataset":"ADPSL"},{"id":"SUPPDM.GESTAGEU","dataset":"SUPPDM","variable":"GESTAGEU","group":3},{"id":"ADPSL.GAGECAT","group":2,"variable":"GAGECAT","dataset":"ADPSL"},{"id":"ADPSL.GAGECATN","group":2,"variable":"GAGECATN","dataset":"ADPSL"},{"id":"ADPSL.SEX","group":2,"variable":"SEX","dataset":"ADPSL"},{"id":"DM.SEX","dataset":"DM","variable":"SEX","group":4},{"id":"ADPSL.RACE","group":2,"variable":"RACE","dataset":"ADPSL"},{"id":"DM.RACE","dataset":"DM","variable":"RACE","group":4},{"id":"ADPSL.ETHNIC","group":2,"variable":"ETHNIC","dataset":"ADPSL"},{"id":"DM.ETHNIC","dataset":"DM","variable":"ETHNIC","group":4},{"id":"ADPSL.FAS1FL","group":2,"variable":"FAS1FL","dataset":"ADPSL"},{"id":"ADPSL.FAS2FL","group":2,"variable":"FAS2FL","dataset":"ADPSL"},{"id":"ADPSL.FAS3FL","group":2,"variable":"FAS3FL","dataset":"ADPSL"},{"id":"ADPSL.SAFFL","group":2,"variable":"SAFFL","dataset":"ADPSL"},{"id":"ADPSL.SAF1FL","group":2,"variable":"SAF1FL","dataset":"ADPSL"},{"id":"SUPPDM.SAF1FL","dataset":"SUPPDM","variable":"SAF1FL","group":3},{"id":"ADPSL.SAF2FL","group":2,"variable":"SAF2FL","dataset":"ADPSL"},{"id":"SUPPDM.SAF2FL","dataset":"SUPPDM","variable":"SAF2FL","group":3},{"id":"ADPSL.SAF3FL","group":2,"variable":"SAF3FL","dataset":"ADPSL"},{"id":"SUPPDM.SAF3FL","dataset":"SUPPDM","variable":"SAF3FL","group":3},{"id":"ADPSL.SAF4FL","group":2,"variable":"SAF4FL","dataset":"ADPSL"},{"id":"SUPPDM.SAF4FL","dataset":"SUPPDM","variable":"SAF4FL","group":3},{"id":"ADPSL.SAF5FL","group":2,"variable":"SAF5FL","dataset":"ADPSL"},{"id":"SUPPDM.SAF5FL","dataset":"SUPPDM","variable":"SAF5FL","group":3},{"id":"ADPSL.SAF6FL","group":2,"variable":"SAF6FL","dataset":"ADPSL"},{"id":"ADPSL.RANDFL","group":2,"variable":"RANDFL","dataset":"ADPSL"},{"id":"ADPSL.ENRLFL","group":2,"variable":"ENRLFL","dataset":"ADPSL"},{"id":"ADPSL.COVIDFL","group":2,"variable":"COVIDFL","dataset":"ADPSL"},{"id":"ADPSL.ARMCD","group":2,"variable":"ARMCD","dataset":"ADPSL"},{"id":"DM.ARMCD","dataset":"DM","variable":"ARMCD","group":4},{"id":"ADPSL.ARM","group":2,"variable":"ARM","dataset":"ADPSL"},{"id":"DM.ARM","dataset":"DM","variable":"ARM","group":4},{"id":"ADPSL.ARMN","group":2,"variable":"ARMN","dataset":"ADPSL"},{"id":"ADPSL.ACTARMCD","group":2,"variable":"ACTARMCD","dataset":"ADPSL"},{"id":"DM.ACTARMCD","dataset":"DM","variable":"ACTARMCD","group":4},{"id":"ADPSL.ACTARM","group":2,"variable":"ACTARM","dataset":"ADPSL"},{"id":"DM.ACTARM","dataset":"DM","variable":"ACTARM","group":4},{"id":"ADPSL.ACTARMN","group":2,"variable":"ACTARMN","dataset":"ADPSL"},{"id":"ADPSL.TRT01P","group":2,"variable":"TRT01P","dataset":"ADPSL"},{"id":"ADPSL.TRT01PN","group":2,"variable":"TRT01PN","dataset":"ADPSL"},{"id":"ADPSL.TRT02P","group":2,"variable":"TRT02P","dataset":"ADPSL"},{"id":"ADPSL.TRT02PN","group":2,"variable":"TRT02PN","dataset":"ADPSL"},{"id":"ADPSL.TRT03P","group":2,"variable":"TRT03P","dataset":"ADPSL"},{"id":"ADPSL.TRT03PN","group":2,"variable":"TRT03PN","dataset":"ADPSL"},{"id":"ADPSL.TRT04P","group":2,"variable":"TRT04P","dataset":"ADPSL"},{"id":"ADPSL.TRT04PN","group":2,"variable":"TRT04PN","dataset":"ADPSL"},{"id":"ADPSL.TRT05P","group":2,"variable":"TRT05P","dataset":"ADPSL"},{"id":"ADPSL.TRT05PN","group":2,"variable":"TRT05PN","dataset":"ADPSL"},{"id":"ADPSL.TRT01A","group":2,"variable":"TRT01A","dataset":"ADPSL"},{"id":"ADPSL.TRT01AN","group":2,"variable":"TRT01AN","dataset":"ADPSL"},{"id":"ADPSL.TRT02A","group":2,"variable":"TRT02A","dataset":"ADPSL"},{"id":"ADPSL.TRT02AN","group":2,"variable":"TRT02AN","dataset":"ADPSL"},{"id":"ADPSL.TRT03A","group":2,"variable":"TRT03A","dataset":"ADPSL"},{"id":"ADPSL.TRT03AN","group":2,"variable":"TRT03AN","dataset":"ADPSL"},{"id":"ADPSL.TRT04A","group":2,"variable":"TRT04A","dataset":"ADPSL"},{"id":"ADPSL.TRT04AN","group":2,"variable":"TRT04AN","dataset":"ADPSL"},{"id":"ADPSL.TRT05A","group":2,"variable":"TRT05A","dataset":"ADPSL"},{"id":"ADPSL.TRT05AN","group":2,"variable":"TRT05AN","dataset":"ADPSL"},{"id":"ADPSL.TRTSEQP","group":2,"variable":"TRTSEQP","dataset":"ADPSL"},{"id":"ADPSL.TRTSEQA","group":2,"variable":"TRTSEQA","dataset":"ADPSL"},{"id":"ADPSL.TRTSDT","group":2,"variable":"TRTSDT","dataset":"ADPSL"},{"id":"ADPSL.TRTEDT","group":2,"variable":"TRTEDT","dataset":"ADPSL"},{"id":"ADPSL.TR01SDT","group":2,"variable":"TR01SDT","dataset":"ADPSL"},{"id":"ADPSL.TR02SDT","group":2,"variable":"TR02SDT","dataset":"ADPSL"},{"id":"ADPSL.TR03SDT","group":2,"variable":"TR03SDT","dataset":"ADPSL"},{"id":"ADPSL.TR04SDT","group":2,"variable":"TR04SDT","dataset":"ADPSL"},{"id":"ADPSL.TR05SDT","group":2,"variable":"TR05SDT","dataset":"ADPSL"},{"id":"ADPSL.TR01EDT","group":2,"variable":"TR01EDT","dataset":"ADPSL"},{"id":"ADPSL.TR02EDT","group":2,"variable":"TR02EDT","dataset":"ADPSL"},{"id":"ADPSL.TR03EDT","group":2,"variable":"TR03EDT","dataset":"ADPSL"},{"id":"ADPSL.TR04EDT","group":2,"variable":"TR04EDT","dataset":"ADPSL"},{"id":"ADPSL.TR05EDT","group":2,"variable":"TR05EDT","dataset":"ADPSL"},{"id":"ADRC.STUDYID","group":20,"variable":"STUDYID","dataset":"ADRC"},{"id":"CE.STUDYID","dataset":"CE","variable":"STUDYID","group":21},{"id":"ADRC.USUBJID","group":20,"variable":"USUBJID","dataset":"ADRC"},{"id":"CE.USUBJID","dataset":"CE","variable":"USUBJID","group":21},{"id":"ADRC.ASEQ","group":20,"variable":"ASEQ","dataset":"ADRC"},{"id":"ADRC.SUBJID","group":20,"variable":"SUBJID","dataset":"ADRC"},{"id":"ADRC.SITEID","group":20,"variable":"SITEID","dataset":"ADRC"},{"id":"ADRC.COUNTRY","group":20,"variable":"COUNTRY","dataset":"ADRC"},{"id":"ADRC.BRTHDT","group":20,"variable":"BRTHDT","dataset":"ADRC"},{"id":"ADRC.AGE","group":20,"variable":"AGE","dataset":"ADRC"},{"id":"ADRC.AGEU","group":20,"variable":"AGEU","dataset":"ADRC"},{"id":"ADRC.AAGE","group":20,"variable":"AAGE","dataset":"ADRC"},{"id":"ADRC.AAGEU","group":20,"variable":"AAGEU","dataset":"ADRC"},{"id":"ADRC.GESTAGE","group":20,"variable":"GESTAGE","dataset":"ADRC"},{"id":"ADRC.GESTAGEU","group":20,"variable":"GESTAGEU","dataset":"ADRC"},{"id":"ADRC.GAGECAT","group":20,"variable":"GAGECAT","dataset":"ADRC"},{"id":"ADRC.GAGECATN","group":20,"variable":"GAGECATN","dataset":"ADRC"},{"id":"ADRC.SEX","group":20,"variable":"SEX","dataset":"ADRC"},{"id":"ADRC.RACE","group":20,"variable":"RACE","dataset":"ADRC"},{"id":"ADRC.RACEGR1","group":20,"variable":"RACEGR1","dataset":"ADRC"},{"id":"ADRC.RACEGR1N","group":20,"variable":"RACEGR1N","dataset":"ADRC"},{"id":"ADRC.ETHNIC","group":20,"variable":"ETHNIC","dataset":"ADRC"},{"id":"ADRC.FAS1FL","group":20,"variable":"FAS1FL","dataset":"ADRC"},{"id":"ADRC.FAS2FL","group":20,"variable":"FAS2FL","dataset":"ADRC"},{"id":"ADRC.FAS3FL","group":20,"variable":"FAS3FL","dataset":"ADRC"},{"id":"ADRC.SAFFL","group":20,"variable":"SAFFL","dataset":"ADRC"},{"id":"ADRC.SAF1FL","group":20,"variable":"SAF1FL","dataset":"ADRC"},{"id":"ADRC.SAF2FL","group":20,"variable":"SAF2FL","dataset":"ADRC"},{"id":"ADRC.SAF3FL","group":20,"variable":"SAF3FL","dataset":"ADRC"},{"id":"ADRC.SAF4FL","group":20,"variable":"SAF4FL","dataset":"ADRC"},{"id":"ADRC.SAF5FL","group":20,"variable":"SAF5FL","dataset":"ADRC"},{"id":"ADRC.SAF6FL","group":20,"variable":"SAF6FL","dataset":"ADRC"},{"id":"ADRC.PPROT1FL","group":20,"variable":"PPROT1FL","dataset":"ADRC"},{"id":"ADRC.PPROT2FL","group":20,"variable":"PPROT2FL","dataset":"ADRC"},{"id":"ADRC.PPROT3FL","group":20,"variable":"PPROT3FL","dataset":"ADRC"},{"id":"ADRC.RANDFL","group":20,"variable":"RANDFL","dataset":"ADRC"},{"id":"ADRC.ENRLFL","group":20,"variable":"ENRLFL","dataset":"ADRC"},{"id":"ADRC.COVIDFL","group":20,"variable":"COVIDFL","dataset":"ADRC"},{"id":"ADRC.ARMCD","group":20,"variable":"ARMCD","dataset":"ADRC"},{"id":"ADRC.ARM","group":20,"variable":"ARM","dataset":"ADRC"},{"id":"ADRC.ARMN","group":20,"variable":"ARMN","dataset":"ADRC"},{"id":"ADRC.ACTARMCD","group":20,"variable":"ACTARMCD","dataset":"ADRC"},{"id":"ADRC.ACTARM","group":20,"variable":"ACTARM","dataset":"ADRC"},{"id":"ADRC.ACTARMN","group":20,"variable":"ACTARMN","dataset":"ADRC"},{"id":"ADRC.RFSTDTC","group":20,"variable":"RFSTDTC","dataset":"ADRC"},{"id":"ADRC.RFENDTC","group":20,"variable":"RFENDTC","dataset":"ADRC"},{"id":"ADRC.TRTSDT","group":20,"variable":"TRTSDT","dataset":"ADRC"},{"id":"ADRC.TRTEDT","group":20,"variable":"TRTEDT","dataset":"ADRC"},{"id":"ADRC.TRTP","group":20,"variable":"TRTP","dataset":"ADRC"},{"id":"ADRC.TRTPN","group":20,"variable":"TRTPN","dataset":"ADRC"},{"id":"ADRC.TRTA","group":20,"variable":"TRTA","dataset":"ADRC"},{"id":"ADRC.TRTAN","group":20,"variable":"TRTAN","dataset":"ADRC"},{"id":"ADRC.CETERM","group":20,"variable":"CETERM","dataset":"ADRC"},{"id":"CE.CETERM","dataset":"CE","variable":"CETERM","group":21},{"id":"ADRC.CETERMN","group":20,"variable":"CETERMN","dataset":"ADRC"},{"id":"ADRC.CEDECOD","group":20,"variable":"CEDECOD","dataset":"ADRC"},{"id":"CE.CEDECOD","dataset":"CE","variable":"CEDECOD","group":21},{"id":"ADRC.CEPTCD","group":20,"variable":"CEPTCD","dataset":"ADRC"},{"id":"CE.CEPTCD","dataset":"CE","variable":"CEPTCD","group":21},{"id":"ADRC.CELLT","group":20,"variable":"CELLT","dataset":"ADRC"},{"id":"CE.CELLT","dataset":"CE","variable":"CELLT","group":21},{"id":"ADRC.CELLTCD","group":20,"variable":"CELLTCD","dataset":"ADRC"},{"id":"CE.CELLTCD","dataset":"CE","variable":"CELLTCD","group":21},{"id":"ADRC.CEHLT","group":20,"variable":"CEHLT","dataset":"ADRC"},{"id":"CE.CEHLT","dataset":"CE","variable":"CEHLT","group":21},{"id":"ADRC.CEHLTCD","group":20,"variable":"CEHLTCD","dataset":"ADRC"},{"id":"CE.CEHLTCD","dataset":"CE","variable":"CEHLTCD","group":21},{"id":"ADRC.CESOC","group":20,"variable":"CESOC","dataset":"ADRC"},{"id":"CE.CESOC","dataset":"CE","variable":"CESOC","group":21},{"id":"ADRC.CESOCCD","group":20,"variable":"CESOCCD","dataset":"ADRC"},{"id":"CE.CESOCCD","dataset":"CE","variable":"CESOCCD","group":21},{"id":"ADRC.CEDICTV","group":20,"variable":"CEDICTV","dataset":"ADRC"},{"id":"SUPPCE.CEDICTV","dataset":"SUPPCE","variable":"CEDICTV","group":22},{"id":"ADRC.CECAT","group":20,"variable":"CECAT","dataset":"ADRC"},{"id":"CE.CECAT","dataset":"CE","variable":"CECAT","group":21},{"id":"ADRC.CESCAT","group":20,"variable":"CESCAT","dataset":"ADRC"},{"id":"CE.CESCAT","dataset":"CE","variable":"CESCAT","group":21},{"id":"ADRC.CESCATN","group":20,"variable":"CESCATN","dataset":"ADRC"},{"id":"ADRC.TRTLST","group":20,"variable":"TRTLST","dataset":"ADRC"},{"id":"ADRC.TRTLSTN","group":20,"variable":"TRTLSTN","dataset":"ADRC"},{"id":"ADRC.VISITNUM","group":20,"variable":"VISITNUM","dataset":"ADRC"},{"id":"CE.VISITNUM","dataset":"CE","variable":"VISITNUM","group":21},{"id":"ADRC.VISIT","group":20,"variable":"VISIT","dataset":"ADRC"},{"id":"CE.VISIT","dataset":"CE","variable":"VISIT","group":21},{"id":"ADRC.LSTDDT","group":20,"variable":"LSTDDT","dataset":"ADRC"},{"id":"ADRC.LSTDOSN","group":20,"variable":"LSTDOSN","dataset":"ADRC"},{"id":"ADRC.ASTDT","group":20,"variable":"ASTDT","dataset":"ADRC"},{"id":"ADRC.ASTDY","group":20,"variable":"ASTDY","dataset":"ADRC"},{"id":"ADRC.ASTDYG","group":20,"variable":"ASTDYG","dataset":"ADRC"},{"id":"ADRC.ASTDYGN","group":20,"variable":"ASTDYGN","dataset":"ADRC"},{"id":"ADRC.CEENDTC","group":20,"variable":"CEENDTC","dataset":"ADRC"},{"id":"CE.CEENDTC","dataset":"CE","variable":"CEENDTC","group":21},{"id":"ADRC.CEPRESP","group":20,"variable":"CEPRESP","dataset":"ADRC"},{"id":"CE.CEPRESP","dataset":"CE","variable":"CEPRESP","group":21},{"id":"ADRC.CEOCCUR","group":20,"variable":"CEOCCUR","dataset":"ADRC"},{"id":"CE.CEOCCUR","dataset":"CE","variable":"CEOCCUR","group":21},{"id":"ADRC.SVMSD00","group":20,"variable":"SVMSD00","dataset":"ADRC"},{"id":"ADRC.SVMSD01","group":20,"variable":"SVMSD01","dataset":"ADRC"},{"id":"ADRC.SVMSD02","group":20,"variable":"SVMSD02","dataset":"ADRC"},{"id":"ADRC.SVMSD03","group":20,"variable":"SVMSD03","dataset":"ADRC"},{"id":"ADRC.SVMSD04","group":20,"variable":"SVMSD04","dataset":"ADRC"},{"id":"ADRC.SVMSD05","group":20,"variable":"SVMSD05","dataset":"ADRC"},{"id":"ADRC.SVMSD06","group":20,"variable":"SVMSD06","dataset":"ADRC"},{"id":"ADRC.SVMSD07","group":20,"variable":"SVMSD07","dataset":"ADRC"},{"id":"ADRC.SVMSD08","group":20,"variable":"SVMSD08","dataset":"ADRC"},{"id":"ADRC.SVMSUD00","group":20,"variable":"SVMSUD00","dataset":"ADRC"},{"id":"ADRC.SVMSUD01","group":20,"variable":"SVMSUD01","dataset":"ADRC"},{"id":"ADRC.SVMSUD02","group":20,"variable":"SVMSUD02","dataset":"ADRC"},{"id":"ADRC.SVMSUD03","group":20,"variable":"SVMSUD03","dataset":"ADRC"},{"id":"ADRC.SVMSUD04","group":20,"variable":"SVMSUD04","dataset":"ADRC"},{"id":"ADRC.SVMSUD05","group":20,"variable":"SVMSUD05","dataset":"ADRC"},{"id":"ADRC.SVMSUD06","group":20,"variable":"SVMSUD06","dataset":"ADRC"},{"id":"ADRC.SVMSUD07","group":20,"variable":"SVMSUD07","dataset":"ADRC"},{"id":"ADRC.SVMSUD08","group":20,"variable":"SVMSUD08","dataset":"ADRC"},{"id":"ADRC.LISTD00","group":20,"variable":"LISTD00","dataset":"ADRC"},{"id":"ADRC.LISTD01","group":20,"variable":"LISTD01","dataset":"ADRC"},{"id":"ADRC.LISTD02","group":20,"variable":"LISTD02","dataset":"ADRC"},{"id":"ADRC.LISTD03","group":20,"variable":"LISTD03","dataset":"ADRC"},{"id":"ADRC.LISTD04","group":20,"variable":"LISTD04","dataset":"ADRC"},{"id":"ADRC.LISTD05","group":20,"variable":"LISTD05","dataset":"ADRC"},{"id":"ADRC.LISTD06","group":20,"variable":"LISTD06","dataset":"ADRC"},{"id":"ADRC.LISTD07","group":20,"variable":"LISTD07","dataset":"ADRC"},{"id":"ADRC.LISTD08","group":20,"variable":"LISTD08","dataset":"ADRC"},{"id":"ADRC.ASEVGD00","group":20,"variable":"ASEVGD00","dataset":"ADRC"},{"id":"ADRC.ASEVGD01","group":20,"variable":"ASEVGD01","dataset":"ADRC"},{"id":"ADRC.ASEVGD02","group":20,"variable":"ASEVGD02","dataset":"ADRC"},{"id":"ADRC.ASEVGD03","group":20,"variable":"ASEVGD03","dataset":"ADRC"},{"id":"ADRC.ASEVGD04","group":20,"variable":"ASEVGD04","dataset":"ADRC"},{"id":"ADRC.ASEVGD05","group":20,"variable":"ASEVGD05","dataset":"ADRC"},{"id":"ADRC.ASEVGD06","group":20,"variable":"ASEVGD06","dataset":"ADRC"},{"id":"ADRC.ASEVGD07","group":20,"variable":"ASEVGD07","dataset":"ADRC"},{"id":"ADRC.ASEVGD08","group":20,"variable":"ASEVGD08","dataset":"ADRC"},{"id":"ADRC.CESEV","group":20,"variable":"CESEV","dataset":"ADRC"},{"id":"CE.CESEV","dataset":"CE","variable":"CESEV","group":21},{"id":"ADRC.MXSEVSPN","group":20,"variable":"MXSEVSPN","dataset":"ADRC"},{"id":"ADRC.MXSEVSP","group":20,"variable":"MXSEVSP","dataset":"ADRC"},{"id":"ADRC.MXSEVOPN","group":20,"variable":"MXSEVOPN","dataset":"ADRC"},{"id":"ADRC.MXSEVOP","group":20,"variable":"MXSEVOP","dataset":"ADRC"},{"id":"ADRC.ADYSSP","group":20,"variable":"ADYSSP","dataset":"ADRC"},{"id":"ADRC.ADYSSPG","group":20,"variable":"ADYSSPG","dataset":"ADRC"},{"id":"ADRC.ADYSSPGN","group":20,"variable":"ADYSSPGN","dataset":"ADRC"},{"id":"ADRC.ADYSOP","group":20,"variable":"ADYSOP","dataset":"ADRC"},{"id":"ADRC.ADYSOPG","group":20,"variable":"ADYSOPG","dataset":"ADRC"},{"id":"ADRC.ADYSOPGN","group":20,"variable":"ADYSOPGN","dataset":"ADRC"},{"id":"ADRC.CEACNNO","group":20,"variable":"CEACNNO","dataset":"ADRC"},{"id":"SUPPCE.CEACNNO","dataset":"SUPPCE","variable":"CEACNNO","group":22},{"id":"ADRC.CECONTRT","group":20,"variable":"CECONTRT","dataset":"ADRC"},{"id":"CE.CECONTRT","dataset":"CE","variable":"CECONTRT","group":21},{"id":"ADRC.CEACHCP","group":20,"variable":"CEACHCP","dataset":"ADRC"},{"id":"SUPPCE.CEACHCP","dataset":"SUPPCE","variable":"CEACHCP","group":22},{"id":"ADRC.CEACNC","group":20,"variable":"CEACNC","dataset":"ADRC"},{"id":"SUPPCE.CEACNC","dataset":"SUPPCE","variable":"CEACNC","group":22},{"id":"ADRC.CESHOSP","group":20,"variable":"CESHOSP","dataset":"ADRC"},{"id":"CE.CESHOSP","dataset":"CE","variable":"CESHOSP","group":21},{"id":"ADRC.CEDIS","group":20,"variable":"CEDIS","dataset":"ADRC"},{"id":"SUPPCE.CEDIS","dataset":"SUPPCE","variable":"CEDIS","group":22},{"id":"ADRC.LISTACTK","group":20,"variable":"LISTACTK","dataset":"ADRC"},{"id":"ADRC.ONGI","group":20,"variable":"ONGI","dataset":"ADRC"},{"id":"ADRC.AONG","group":20,"variable":"AONG","dataset":"ADRC"},{"id":"ADRC.OCCUR","group":20,"variable":"OCCUR","dataset":"ADRC"},{"id":"SUPPCE.OCCUR","dataset":"SUPPCE","variable":"OCCUR","group":22},{"id":"ADRC.ANL01FL","group":20,"variable":"ANL01FL","dataset":"ADRC"},{"id":"ADRC.ANL01RS","group":20,"variable":"ANL01RS","dataset":"ADRC"}],"links":[{"source":"ADPSL.STUDYID","target":"ADSL.STUDYID","value":1},{"source":"ADPSL.USUBJID","target":"ADSL.USUBJID","value":1},{"source":"ADPSL.SUBJID","target":"ADSL.SUBJID","value":1},{"source":"ADPSL.SITEID","target":"ADSL.SITEID","value":1},{"source":"ADPSL.COUNTRY","target":"ADSL.COUNTRY","value":1},{"source":"ADPSL.INVNAM","target":"ADSL.INVNAM","value":1},{"source":"ADPSL.BRTHDT","target":"ADSL.BRTHDT","value":1},{"source":"ADPSL.BRTHDTC","target":"ADSL.BRTHDTC","value":1},{"source":"ADPSL.AGE","target":"ADSL.AGE","value":1},{"source":"ADPSL.AGEU","target":"ADSL.AGEU","value":1},{"source":"ADPSL.AAGE","target":"ADSL.AAGE","value":1},{"source":"ADPSL.AAGEU","target":"ADSL.AAGEU","value":1},{"source":"ADPSL.GESTAGE","target":"ADSL.GESTAGE","value":1},{"source":"ADPSL.GESTAGEU","target":"ADSL.GESTAGEU","value":1},{"source":"ADPSL.GAGECAT","target":"ADSL.GAGECAT","value":1},{"source":"ADPSL.GAGECATN","target":"ADSL.GAGECATN","value":1},{"source":"ADPSL.SEX","target":"ADSL.SEX","value":1},{"source":"ADPSL.RACE","target":"ADSL.RACE","value":1},{"source":"SUPPDM.RACE1","target":"ADSL.RACE1","value":1},{"source":"SUPPDM.RACE2","target":"ADSL.RACE2","value":1},{"source":"SUPPDM.RACE3","target":"ADSL.RACE3","value":1},{"source":"SUPPDM.RACEOR","target":"ADSL.RACEOR","value":1},{"source":"ADPSL.ETHNIC","target":"ADSL.ETHNIC","value":1},{"source":"ADPSL.FAS1FL","target":"ADSL.FAS1FL","value":1},{"source":"ADPSL.FAS2FL","target":"ADSL.FAS2FL","value":1},{"source":"ADPSL.FAS3FL","target":"ADSL.FAS3FL","value":1},{"source":"ADPSL.SAFFL","target":"ADSL.SAFFL","value":1},{"source":"ADPSL.SAF1FL","target":"ADSL.SAF1FL","value":1},{"source":"ADPSL.SAF2FL","target":"ADSL.SAF2FL","value":1},{"source":"ADPSL.SAF3FL","target":"ADSL.SAF3FL","value":1},{"source":"ADPSL.SAF4FL","target":"ADSL.SAF4FL","value":1},{"source":"ADPSL.SAF5FL","target":"ADSL.SAF5FL","value":1},{"source":"ADPSL.SAF6FL","target":"ADSL.SAF6FL","value":1},{"source":"ADPSL.RANDFL","target":"ADSL.RANDFL","value":1},{"source":"ADPSL.ENRLFL","target":"ADSL.ENRLFL","value":1},{"source":"ADPSL.COVIDFL","target":"ADSL.COVIDFL","value":1},{"source":"DM.DSGROUP","target":"ADSL.DSGROUP","value":1},{"source":"ADPSL.ARMCD","target":"ADSL.ARMCD","value":1},{"source":"ADPSL.ARM","target":"ADSL.ARM","value":1},{"source":"ADPSL.ARMN","target":"ADSL.ARMN","value":1},{"source":"ADPSL.ACTARMCD","target":"ADSL.ACTARMCD","value":1},{"source":"ADPSL.ACTARM","target":"ADSL.ACTARM","value":1},{"source":"ADPSL.ACTARMN","target":"ADSL.ACTARMN","value":1},{"source":"ADPSL.TRT01P","target":"ADSL.TRT01P","value":1},{"source":"ADPSL.TRT01PN","target":"ADSL.TRT01PN","value":1},{"source":"ADPSL.TRT02P","target":"ADSL.TRT02P","value":1},{"source":"ADPSL.TRT02PN","target":"ADSL.TRT02PN","value":1},{"source":"ADPSL.TRT03P","target":"ADSL.TRT03P","value":1},{"source":"ADPSL.TRT03PN","target":"ADSL.TRT03PN","value":1},{"source":"ADPSL.TRT04P","target":"ADSL.TRT04P","value":1},{"source":"ADPSL.TRT04PN","target":"ADSL.TRT04PN","value":1},{"source":"ADPSL.TRT05P","target":"ADSL.TRT05P","value":1},{"source":"ADPSL.TRT05PN","target":"ADSL.TRT05PN","value":1},{"source":"ADPSL.TRT01A","target":"ADSL.TRT01A","value":1},{"source":"ADPSL.TRT01AN","target":"ADSL.TRT01AN","value":1},{"source":"ADPSL.TRT02A","target":"ADSL.TRT02A","value":1},{"source":"ADPSL.TRT02AN","target":"ADSL.TRT02AN","value":1},{"source":"ADPSL.TRT03A","target":"ADSL.TRT03A","value":1},{"source":"ADPSL.TRT03AN","target":"ADSL.TRT03AN","value":1},{"source":"ADPSL.TRT04A","target":"ADSL.TRT04A","value":1},{"source":"ADPSL.TRT04AN","target":"ADSL.TRT04AN","value":1},{"source":"ADPSL.TRT05A","target":"ADSL.TRT05A","value":1},{"source":"ADPSL.TRT05AN","target":"ADSL.TRT05AN","value":1},{"source":"ADPSL.TRTSEQP","target":"ADSL.TRTSEQP","value":1},{"source":"ADPSL.TRTSEQA","target":"ADSL.TRTSEQA","value":1},{"source":"DM.RFSTDTC","target":"ADSL.RFSTDTC","value":1},{"source":"DM.RFENDTC","target":"ADSL.RFENDTC","value":1},{"source":"DM.RFPENDTC","target":"ADSL.RFPENDTC","value":1},{"source":"ADPSL.TRTSDT","target":"ADSL.TRTSDT","value":1},{"source":"ADPSL.TRTEDT","target":"ADSL.TRTEDT","value":1},{"source":"DM.RFICDTC","target":"ADSL.RFICDTC","value":1},{"source":"DM.DTHDTC","target":"ADSL.DTHDTC","value":1},{"source":"DM.DTHFL","target":"ADSL.DTHFL","value":1},{"source":"ADPSL.TR01SDT","target":"ADSL.TR01SDT","value":1},{"source":"ADPSL.TR02SDT","target":"ADSL.TR02SDT","value":1},{"source":"ADPSL.TR03SDT","target":"ADSL.TR03SDT","value":1},{"source":"ADPSL.TR04SDT","target":"ADSL.TR04SDT","value":1},{"source":"ADPSL.TR05SDT","target":"ADSL.TR05SDT","value":1},{"source":"ADPSL.TR01EDT","target":"ADSL.TR01EDT","value":1},{"source":"ADPSL.TR02EDT","target":"ADSL.TR02EDT","value":1},{"source":"ADPSL.TR03EDT","target":"ADSL.TR03EDT","value":1},{"source":"ADPSL.TR04EDT","target":"ADSL.TR04EDT","value":1},{"source":"ADPSL.TR05EDT","target":"ADSL.TR05EDT","value":1},{"source":"IS.STUDYID","target":"ADIS.STUDYID","value":1},{"source":"IS.USUBJID","target":"ADIS.USUBJID","value":1},{"source":"ADSL.SUBJID","target":"ADIS.SUBJID","value":1},{"source":"ADSL.SITEID","target":"ADIS.SITEID","value":1},{"source":"ADSL.COUNTRY","target":"ADIS.COUNTRY","value":1},{"source":"ADSL.BRTHDT","target":"ADIS.BRTHDT","value":1},{"source":"ADSL.AGE","target":"ADIS.AGE","value":1},{"source":"ADSL.AGEU","target":"ADIS.AGEU","value":1},{"source":"ADSL.AAGE","target":"ADIS.AAGE","value":1},{"source":"ADSL.AAGEU","target":"ADIS.AAGEU","value":1},{"source":"ADSL.GESTAGE","target":"ADIS.GESTAGE","value":1},{"source":"ADSL.GESTAGEU","target":"ADIS.GESTAGEU","value":1},{"source":"ADSL.GAGECAT","target":"ADIS.GAGECAT","value":1},{"source":"ADSL.GAGECATN","target":"ADIS.GAGECATN","value":1},{"source":"ADSL.SEX","target":"ADIS.SEX","value":1},{"source":"ADSL.RACE","target":"ADIS.RACE","value":1},{"source":"ADSL.RACEGR1","target":"ADIS.RACEGR1","value":1},{"source":"ADSL.RACEGR1N","target":"ADIS.RACEGR1N","value":1},{"source":"ADSL.ETHNIC","target":"ADIS.ETHNIC","value":1},{"source":"ADSL.FAS1FL","target":"ADIS.FAS1FL","value":1},{"source":"ADSL.FAS2FL","target":"ADIS.FAS2FL","value":1},{"source":"ADSL.FAS3FL","target":"ADIS.FAS3FL","value":1},{"source":"ADSL.SAFFL","target":"ADIS.SAFFL","value":1},{"source":"ADSL.SAF1FL","target":"ADIS.SAF1FL","value":1},{"source":"ADSL.SAF2FL","target":"ADIS.SAF2FL","value":1},{"source":"ADSL.SAF3FL","target":"ADIS.SAF3FL","value":1},{"source":"ADSL.SAF4FL","target":"ADIS.SAF4FL","value":1},{"source":"ADSL.SAF5FL","target":"ADIS.SAF5FL","value":1},{"source":"ADSL.SAF6FL","target":"ADIS.SAF6FL","value":1},{"source":"ADSL.PPROT1FL","target":"ADIS.PPROT1FL","value":1},{"source":"ADSL.PPROT2FL","target":"ADIS.PPROT2FL","value":1},{"source":"ADSL.PPROT3FL","target":"ADIS.PPROT3FL","value":1},{"source":"ADSL.RANDFL","target":"ADIS.RANDFL","value":1},{"source":"ADSL.ENRLFL","target":"ADIS.ENRLFL","value":1},{"source":"ADSL.COVIDFL","target":"ADIS.COVIDFL","value":1},{"source":"ADSL.ARMCD","target":"ADIS.ARMCD","value":1},{"source":"ADSL.ARM","target":"ADIS.ARM","value":1},{"source":"ADSL.ARMN","target":"ADIS.ARMN","value":1},{"source":"ADSL.ACTARMCD","target":"ADIS.ACTARMCD","value":1},{"source":"ADSL.ACTARM","target":"ADIS.ACTARM","value":1},{"source":"ADSL.ACTARMN","target":"ADIS.ACTARMN","value":1},{"source":"ADSL.RFSTDTC","target":"ADIS.RFSTDTC","value":1},{"source":"ADSL.RFENDTC","target":"ADIS.RFENDTC","value":1},{"source":"ADSL.TRTSDT","target":"ADIS.TRTSDT","value":1},{"source":"ADSL.TRTEDT","target":"ADIS.TRTEDT","value":1},{"source":"IS.ISDTC","target":"ADIS.ISDTC","value":1},{"source":"IS.VISIT","target":"ADIS.VISIT","value":1},{"source":"IS.VISITNUM","target":"ADIS.VISITNUM","value":1},{"source":"IS.ISNAM","target":"ADIS.ISNAM","value":1},{"source":"IS.ISSPEC","target":"ADIS.ISSPEC","value":1},{"source":"IS.ISMETHOD","target":"ADIS.ISMETHOD","value":1},{"source":"IS.ISREFID","target":"ADIS.ISREFID","value":1},{"source":"IS.ISSPID","target":"ADIS.ISSPID","value":1},{"source":"IS.ISCAT","target":"ADIS.ISCAT","value":1},{"source":"IS.ISSTAT","target":"ADIS.ISSTAT","value":1},{"source":"IS.ISREASND","target":"ADIS.ISREASND","value":1},{"source":"IS.ISLLOQ","target":"ADIS.ISLLOQ","value":1},{"source":"IS.ISULOQ","target":"ADIS.ISULOQ","value":1},{"source":"IS.ISORRES","target":"ADIS.ISORRES","value":1},{"source":"IS.ISORRESU","target":"ADIS.ISORRESU","value":1},{"source":"AE.STUDYID","target":"ADAE.STUDYID","value":1},{"source":"AE.USUBJID","target":"ADAE.USUBJID","value":1},{"source":"ADSL.SUBJID","target":"ADAE.SUBJID","value":1},{"source":"ADSL.SITEID","target":"ADAE.SITEID","value":1},{"source":"ADSL.COUNTRY","target":"ADAE.COUNTRY","value":1},{"source":"ADSL.BRTHDT","target":"ADAE.BRTHDT","value":1},{"source":"ADSL.AGE","target":"ADAE.AGE","value":1},{"source":"ADSL.AGEU","target":"ADAE.AGEU","value":1},{"source":"ADSL.AAGE","target":"ADAE.AAGE","value":1},{"source":"ADSL.AAGEU","target":"ADAE.AAGEU","value":1},{"source":"ADSL.GESTAGE","target":"ADAE.GESTAGE","value":1},{"source":"ADSL.GESTAGEU","target":"ADAE.GESTAGEU","value":1},{"source":"ADSL.GAGECAT","target":"ADAE.GAGECAT","value":1},{"source":"ADSL.GAGECATN","target":"ADAE.GAGECATN","value":1},{"source":"ADSL.SEX","target":"ADAE.SEX","value":1},{"source":"ADSL.RACE","target":"ADAE.RACE","value":1},{"source":"ADSL.RACEGR1","target":"ADAE.RACEGR1","value":1},{"source":"ADSL.RACEGR1N","target":"ADAE.RACEGR1N","value":1},{"source":"ADSL.ETHNIC","target":"ADAE.ETHNIC","value":1},{"source":"ADSL.FAS1FL","target":"ADAE.FAS1FL","value":1},{"source":"ADSL.FAS2FL","target":"ADAE.FAS2FL","value":1},{"source":"ADSL.FAS3FL","target":"ADAE.FAS3FL","value":1},{"source":"ADSL.SAFFL","target":"ADAE.SAFFL","value":1},{"source":"ADSL.SAF1FL","target":"ADAE.SAF1FL","value":1},{"source":"ADSL.SAF2FL","target":"ADAE.SAF2FL","value":1},{"source":"ADSL.SAF3FL","target":"ADAE.SAF3FL","value":1},{"source":"ADSL.SAF4FL","target":"ADAE.SAF4FL","value":1},{"source":"ADSL.SAF5FL","target":"ADAE.SAF5FL","value":1},{"source":"ADSL.SAF6FL","target":"ADAE.SAF6FL","value":1},{"source":"ADSL.PPROT1FL","target":"ADAE.PPROT1FL","value":1},{"source":"ADSL.PPROT2FL","target":"ADAE.PPROT2FL","value":1},{"source":"ADSL.PPROT3FL","target":"ADAE.PPROT3FL","value":1},{"source":"ADSL.RANDFL","target":"ADAE.RANDFL","value":1},{"source":"ADSL.ENRLFL","target":"ADAE.ENRLFL","value":1},{"source":"ADSL.COVIDFL","target":"ADAE.COVIDFL","value":1},{"source":"ADSL.ARMCD","target":"ADAE.ARMCD","value":1},{"source":"ADSL.ARM","target":"ADAE.ARM","value":1},{"source":"ADSL.ARMN","target":"ADAE.ARMN","value":1},{"source":"ADSL.ACTARMCD","target":"ADAE.ACTARMCD","value":1},{"source":"ADSL.ACTARM","target":"ADAE.ACTARM","value":1},{"source":"ADSL.ACTARMN","target":"ADAE.ACTARMN","value":1},{"source":"ADSL.RFSTDTC","target":"ADAE.RFSTDTC","value":1},{"source":"ADSL.RFENDTC","target":"ADAE.RFENDTC","value":1},{"source":"ADSL.TRTSDT","target":"ADAE.TRTSDT","value":1},{"source":"ADSL.TRTEDT","target":"ADAE.TRTEDT","value":1},{"source":"AE.AESEQ","target":"ADAE.AESEQ","value":1},{"source":"AE.AEREFID","target":"ADAE.AEREFID","value":1},{"source":"AE.AETERM","target":"ADAE.AETERM","value":1},{"source":"AE.AEDECOD","target":"ADAE.AEDECOD","value":1},{"source":"AE.AEPTCD","target":"ADAE.AEPTCD","value":1},{"source":"AE.AEBODSYS","target":"ADAE.AEBODSYS","value":1},{"source":"AE.AEBDSYCD","target":"ADAE.AEBDSYCD","value":1},{"source":"AE.AELLT","target":"ADAE.AELLT","value":1},{"source":"AE.AELLTCD","target":"ADAE.AELLTCD","value":1},{"source":"AE.AEHLT","target":"ADAE.AEHLT","value":1},{"source":"AE.AEHLTCD","target":"ADAE.AEHLTCD","value":1},{"source":"AE.AEHLGT","target":"ADAE.AEHLGT","value":1},{"source":"AE.AEHLGTCD","target":"ADAE.AEHLGTCD","value":1},{"source":"AE.AESOC","target":"ADAE.AESOC","value":1},{"source":"AE.AESOCCD","target":"ADAE.AESOCCD","value":1},{"source":"SUPPAE.AEDICTV","target":"ADAE.AEDICTV","value":1},{"source":"AE.AECAT","target":"ADAE.AECAT","value":1},{"source":"AE.AESCAT","target":"ADAE.AESCAT","value":1},{"source":"SUPPAE.AETRT","target":"ADAE.AETRT","value":1},{"source":"SUPPAE.AECYCVID","target":"ADAE.AECYCVID","value":1},{"source":"AE.AESTDTC","target":"ADAE.AESTDTC","value":1},{"source":"SUPPAE.AEELPTIM","target":"ADAE.AEELPTIM","value":1},{"source":"AE.AESTDY","target":"ADAE.AESTDY","value":1},{"source":"AE.AEENDTC","target":"ADAE.AEENDTC","value":1},{"source":"AE.AEENDY","target":"ADAE.AEENDY","value":1},{"source":"SUPPAE.AEDTHDTC","target":"ADAE.AEDTHDTC","value":1},{"source":"AE.AEENRTPT","target":"ADAE.AEENRTPT","value":1},{"source":"AE.AEENTPT","target":"ADAE.AEENTPT","value":1},{"source":"SUPPAE.AEMAAE","target":"ADAE.AEMAAE","value":1},{"source":"AE.AESER","target":"ADAE.AESER","value":1},{"source":"AE.AESHOSP","target":"ADAE.AESHOSP","value":1},{"source":"AE.AESDISAB","target":"ADAE.AESDISAB","value":1},{"source":"AE.AESDTH","target":"ADAE.AESDTH","value":1},{"source":"AE.AESCONG","target":"ADAE.AESCONG","value":1},{"source":"AE.AESMIE","target":"ADAE.AESMIE","value":1},{"source":"AE.AESLIFE","target":"ADAE.AESLIFE","value":1},{"source":"AE.AESEV","target":"ADAE.AESEV","value":1},{"source":"AE.AELAT","target":"ADAE.AELAT","value":1},{"source":"AE.AEDIR","target":"ADAE.AEDIR","value":1},{"source":"AE.AEREL","target":"ADAE.AEREL","value":1},{"source":"SUPPAE.AERELPR","target":"ADAE.AERELPR","value":1},{"source":"AE.AERELNST","target":"ADAE.AERELNST","value":1},{"source":"AE.AEACN","target":"ADAE.AEACN","value":1},{"source":"SUPPAE.AEACNNO","target":"ADAE.AEACNNO","value":1},{"source":"AE.AECONTRT","target":"ADAE.AECONTRT","value":1},{"source":"SUPPAE.AEACHOS","target":"ADAE.AEACHOS","value":1},{"source":"SUPPAE.AEACHCP","target":"ADAE.AEACHCP","value":1},{"source":"SUPPAE.AEDIS","target":"ADAE.AEDIS","value":1},{"source":"AE.AEOUT","target":"ADAE.AEOUT","value":1},{"source":"VS.VSORRES","target":"ADAE.VSORRES","value":1},{"source":"VS.VSORRESU","target":"ADAE.VSORRESU","value":1},{"source":"VS.VSLOC","target":"ADAE.VSLOC","value":1},{"source":"AE.AELOC","target":"ADAE.AELOC","value":1},{"source":"CM.STUDYID","target":"ADCM.STUDYID","value":1},{"source":"CM.USUBJID","target":"ADCM.USUBJID","value":1},{"source":"DM.SUBJID","target":"ADCM.SUBJID","value":1},{"source":"DM.SITEID","target":"ADCM.SITEID","value":1},{"source":"ADPSL.COUNTRY","target":"ADCM.COUNTRY","value":1},{"source":"ADPSL.AGE","target":"ADCM.AGE","value":1},{"source":"ADPSL.AGEU","target":"ADCM.AGEU","value":1},{"source":"ADPSL.SEX","target":"ADCM.SEX","value":1},{"source":"ADPSL.RACE","target":"ADCM.RACE","value":1},{"source":"ADPSL.FAS1FL","target":"ADCM.FAS1FL","value":1},{"source":"ADPSL.FAS2FL","target":"ADCM.FAS2FL","value":1},{"source":"ADPSL.FAS3FL","target":"ADCM.FAS3FL","value":1},{"source":"ADPSL.SAFFL","target":"ADCM.SAFFL","value":1},{"source":"ADPSL.SAF1FL","target":"ADCM.SAF1FL","value":1},{"source":"ADPSL.SAF2FL","target":"ADCM.SAF2FL","value":1},{"source":"ADPSL.SAF3FL","target":"ADCM.SAF3FL","value":1},{"source":"ADPSL.SAF4FL","target":"ADCM.SAF4FL","value":1},{"source":"ADPSL.SAF5FL","target":"ADCM.SAF5FL","value":1},{"source":"ADPSL.SAF6FL","target":"ADCM.SAF6FL","value":1},{"source":"ADPSL.RANDFL","target":"ADCM.RANDFL","value":1},{"source":"ADPSL.ENRLFL","target":"ADCM.ENRLFL","value":1},{"source":"ADPSL.ARM","target":"ADCM.ARM","value":1},{"source":"ADPSL.ACTARM","target":"ADCM.ACTARM","value":1},{"source":"CM.CMSEQ","target":"ADCM.CMSEQ","value":1},{"source":"CM.CMSPID","target":"ADCM.CMSPID","value":1},{"source":"CM.CMTRT","target":"ADCM.CMTRT","value":1},{"source":"CM.CMDECOD","target":"ADCM.CMDECOD","value":1},{"source":"SUPPCM.CMSEQ1","target":"ADCM.CMSEQ1","value":1},{"source":"SUPPCM.CMSEQ2","target":"ADCM.CMSEQ2","value":1},{"source":"SUPPCM.CMDICTV","target":"ADCM.CMDICTV","value":1},{"source":"CM.CMSTDTC","target":"ADCM.CMSTDTC","value":1},{"source":"CM.CMSTDY","target":"ADCM.CMSTDY","value":1},{"source":"CM.CMENDTC","target":"ADCM.CMENDTC","value":1},{"source":"CM.CMENDY","target":"ADCM.CMENDY","value":1},{"source":"CM.CMENRTPT","target":"ADCM.CMENRTPT","value":1},{"source":"CM.CMENTPT","target":"ADCM.CMENTPT","value":1},{"source":"CM.EPOCH","target":"ADCM.APHASE","value":1},{"source":"SUPPCM.CMPROHIB","target":"ADCM.CMPROHIB","value":1},{"source":"SUPPCM.CMPROPHY","target":"ADCM.CMPROPHY","value":1},{"source":"DV.STUDYID or LDV","target":"ADDV.STUDYID","value":1},{"source":"DV.USUBJID or LDV","target":"ADDV.USUBJID","value":1},{"source":"ADSL.SUBJID","target":"ADDV.SUBJID","value":1},{"source":"ADSL.SITEID","target":"ADDV.SITEID","value":1},{"source":"ADSL.COUNTRY","target":"ADDV.COUNTRY","value":1},{"source":"ADSL.BRTHDT","target":"ADDV.BRTHDT","value":1},{"source":"ADSL.AGE","target":"ADDV.AGE","value":1},{"source":"ADSL.AGEU","target":"ADDV.AGEU","value":1},{"source":"ADSL.AAGE","target":"ADDV.AAGE","value":1},{"source":"ADSL.AAGEU","target":"ADDV.AAGEU","value":1},{"source":"ADSL.GESTAGE","target":"ADDV.GESTAGE","value":1},{"source":"ADSL.GESTAGEU","target":"ADDV.GESTAGEU","value":1},{"source":"ADSL.GAGECAT","target":"ADDV.GAGECAT","value":1},{"source":"ADSL.GAGECATN","target":"ADDV.GAGECATN","value":1},{"source":"ADSL.SEX","target":"ADDV.SEX","value":1},{"source":"ADSL.RACE","target":"ADDV.RACE","value":1},{"source":"ADSL.RACEGR1","target":"ADDV.RACEGR1","value":1},{"source":"ADSL.RACEGR1N","target":"ADDV.RACEGR1N","value":1},{"source":"ADSL.ETHNIC","target":"ADDV.ETHNIC","value":1},{"source":"ADSL.FAS1FL","target":"ADDV.FAS1FL","value":1},{"source":"ADSL.FAS2FL","target":"ADDV.FAS2FL","value":1},{"source":"ADSL.FAS3FL","target":"ADDV.FAS3FL","value":1},{"source":"ADSL.SAFFL","target":"ADDV.SAFFL","value":1},{"source":"ADSL.SAF1FL","target":"ADDV.SAF1FL","value":1},{"source":"ADSL.SAF2FL","target":"ADDV.SAF2FL","value":1},{"source":"ADSL.SAF3FL","target":"ADDV.SAF3FL","value":1},{"source":"ADSL.SAF4FL","target":"ADDV.SAF4FL","value":1},{"source":"ADSL.SAF5FL","target":"ADDV.SAF5FL","value":1},{"source":"ADSL.SAF6FL","target":"ADDV.SAF6FL","value":1},{"source":"ADSL.PPROT1FL","target":"ADDV.PPROT1FL","value":1},{"source":"ADSL.PPROT2FL","target":"ADDV.PPROT2FL","value":1},{"source":"ADSL.PPROT3FL","target":"ADDV.PPROT3FL","value":1},{"source":"ADSL.RANDFL","target":"ADDV.RANDFL","value":1},{"source":"ADSL.ENRLFL","target":"ADDV.ENRLFL","value":1},{"source":"ADSL.COVIDFL","target":"ADDV.COVIDFL","value":1},{"source":"ADSL.ARMCD","target":"ADDV.ARMCD","value":1},{"source":"ADSL.ARM","target":"ADDV.ARM","value":1},{"source":"ADSL.ARMN","target":"ADDV.ARMN","value":1},{"source":"ADSL.ACTARMCD","target":"ADDV.ACTARMCD","value":1},{"source":"ADSL.ACTARM","target":"ADDV.ACTARM","value":1},{"source":"ADSL.ACTARMN","target":"ADDV.ACTARMN","value":1},{"source":"ADSL.RFSTDTC","target":"ADDV.RFSTDTC","value":1},{"source":"ADSL.RFENDTC","target":"ADDV.RFENDTC","value":1},{"source":"ADSL.TRTSDT","target":"ADDV.TRTSDT","value":1},{"source":"ADSL.TRTEDT","target":"ADDV.TRTEDT","value":1},{"source":"DV.DVSPID LDV or DVSPID in Z4","target":"ADDV.DVSPID","value":1},{"source":"LDV.DVTERM or DV","target":"ADDV.DVTERM","value":1},{"source":"LDV.DVDECOD or DV","target":"ADDV.DVDECOD","value":1},{"source":"LDV.DVCAT or DV","target":"ADDV.DVCAT","value":1},{"source":"SUPPDV.DVSOURCE or LDV","target":"ADDV.DVSOURCE","value":1},{"source":"LDV.VISITNUM or DV","target":"ADDV.VISITNUM","value":1},{"source":"LDV.VISIT or DV","target":"ADDV.VISIT","value":1},{"source":"SUPPDV.DVEPRELI or LDV","target":"ADDV.DVEPRELI","value":1},{"source":"SUPPDV.DVIMPACT or LDV","target":"ADDV.DVIMPACT","value":1},{"source":"LDV.DVCM or SUPPDV","target":"ADDV.DVCM","value":1},{"source":"SUPPDV.DVCM1","target":"ADDV.DVCM1","value":1},{"source":"SUPPDV.DVCM2","target":"ADDV.DVCM2","value":1},{"source":"SUPPDV.DVCM3","target":"ADDV.DVCM3","value":1},{"source":"SUPPDV.DVCM4","target":"ADDV.DVCM4","value":1},{"source":"SUPPDV.DVCM5","target":"ADDV.DVCM5","value":1},{"source":"SUPPDV.DVCM6","target":"ADDV.DVCM6","value":1},{"source":"SUPPDV.DVCM7","target":"ADDV.DVCM7","value":1},{"source":"LDV.DVCATCH","target":"ADDV.DVCATCH","value":1},{"source":"LDV.IETESTCD","target":"ADDV.IETESTCD","value":1},{"source":"EX.STUDYID","target":"ADEX.STUDYID","value":1},{"source":"EX.USUBJID","target":"ADEX.USUBJID","value":1},{"source":"ADSL.SUBJID","target":"ADEX.SUBJID","value":1},{"source":"ADSL.SITEID","target":"ADEX.SITEID","value":1},{"source":"ADSL.COUNTRY","target":"ADEX.COUNTRY","value":1},{"source":"ADSL.BRTHDT","target":"ADEX.BRTHDT","value":1},{"source":"ADSL.AGE","target":"ADEX.AGE","value":1},{"source":"ADSL.AGEU","target":"ADEX.AGEU","value":1},{"source":"ADSL.AAGE","target":"ADEX.AAGE","value":1},{"source":"ADSL.AAGEU","target":"ADEX.AAGEU","value":1},{"source":"ADSL.GESTAGE","target":"ADEX.GESTAGE","value":1},{"source":"ADSL.GESTAGEU","target":"ADEX.GESTAGEU","value":1},{"source":"ADSL.GAGECAT","target":"ADEX.GAGECAT","value":1},{"source":"ADSL.GAGECATN","target":"ADEX.GAGECATN","value":1},{"source":"ADSL.SEX","target":"ADEX.SEX","value":1},{"source":"ADSL.RACE","target":"ADEX.RACE","value":1},{"source":"ADSL.RACEGR1","target":"ADEX.RACEGR1","value":1},{"source":"ADSL.RACEGR1N","target":"ADEX.RACEGR1N","value":1},{"source":"ADSL.ETHNIC","target":"ADEX.ETHNIC","value":1},{"source":"ADSL.FAS1FL","target":"ADEX.FAS1FL","value":1},{"source":"ADSL.FAS2FL","target":"ADEX.FAS2FL","value":1},{"source":"ADSL.FAS3FL","target":"ADEX.FAS3FL","value":1},{"source":"ADSL.SAFFL","target":"ADEX.SAFFL","value":1},{"source":"ADSL.SAF1FL","target":"ADEX.SAF1FL","value":1},{"source":"ADSL.SAF2FL","target":"ADEX.SAF2FL","value":1},{"source":"ADSL.SAF3FL","target":"ADEX.SAF3FL","value":1},{"source":"ADSL.SAF4FL","target":"ADEX.SAF4FL","value":1},{"source":"ADSL.SAF5FL","target":"ADEX.SAF5FL","value":1},{"source":"ADSL.SAF6FL","target":"ADEX.SAF6FL","value":1},{"source":"ADSL.PPROT1FL","target":"ADEX.PPROT1FL","value":1},{"source":"ADSL.PPROT2FL","target":"ADEX.PPROT2FL","value":1},{"source":"ADSL.PPROT3FL","target":"ADEX.PPROT3FL","value":1},{"source":"ADSL.RANDFL","target":"ADEX.RANDFL","value":1},{"source":"ADSL.ENRLFL","target":"ADEX.ENRLFL","value":1},{"source":"ADSL.COVIDFL","target":"ADEX.COVIDFL","value":1},{"source":"ADSL.ARMCD","target":"ADEX.ARMCD","value":1},{"source":"ADSL.ARM","target":"ADEX.ARM","value":1},{"source":"ADSL.ARMN","target":"ADEX.ARMN","value":1},{"source":"ADSL.ACTARMCD","target":"ADEX.ACTARMCD","value":1},{"source":"ADSL.ACTARM","target":"ADEX.ACTARM","value":1},{"source":"ADSL.ACTARMN","target":"ADEX.ACTARMN","value":1},{"source":"ADSL.RFSTDTC","target":"ADEX.RFSTDTC","value":1},{"source":"ADSL.RFENDTC","target":"ADEX.RFENDTC","value":1},{"source":"ADSL.TRTSDT","target":"ADEX.TRTSDT","value":1},{"source":"ADSL.TRTEDT","target":"ADEX.TRTEDT","value":1},{"source":"EX.EXSEQ","target":"ADEX.EXSEQ","value":1},{"source":"EX.EXREFID","target":"ADEX.EXREFID","value":1},{"source":"EX.EXTRT","target":"ADEX.EXTRT","value":1},{"source":"EX.EXDOSE","target":"ADEX.EXDOSE","value":1},{"source":"EX.EXDOSU","target":"ADEX.EXDOSU","value":1},{"source":"EX.EXSTDTC","target":"ADEX.EXSTDTC","value":1},{"source":"EX.EXSTDY","target":"ADEX.EXSTDY","value":1},{"source":"EX.EXENDTC","target":"ADEX.EXENDTC","value":1},{"source":"EX.EXENDY","target":"ADEX.EXENDY","value":1},{"source":"EX.VISITNUM","target":"ADEX.VISITNUM","value":1},{"source":"EX.VISIT","target":"ADEX.VISIT","value":1},{"source":"EX.EXROUTE","target":"ADEX.EXROUTE","value":1},{"source":"EX.EXLOC","target":"ADEX.EXLOC","value":1},{"source":"EX.EXDIR","target":"ADEX.EXDIR","value":1},{"source":"EX.EXLAT","target":"ADEX.EXLAT","value":1},{"source":"EX.EXLOT","target":"ADEX.EXLOT","value":1},{"source":"DM.STUDYID","target":"ADPSL.STUDYID","value":1},{"source":"DM.USUBJID","target":"ADPSL.USUBJID","value":1},{"source":"DM.SUBJID","target":"ADPSL.SUBJID","value":1},{"source":"DM.SITEID","target":"ADPSL.SITEID","value":1},{"source":"DM.COUNTRY","target":"ADPSL.COUNTRY","value":1},{"source":"DM.BRTHDTC","target":"ADPSL.BRTHDTC","value":1},{"source":"DM.AGE","target":"ADPSL.AGE","value":1},{"source":"DM.AGEU","target":"ADPSL.AGEU","value":1},{"source":"SUPPDM.GESTAGE","target":"ADPSL.GESTAGE","value":1},{"source":"SUPPDM.GESTAGEU","target":"ADPSL.GESTAGEU","value":1},{"source":"DM.SEX","target":"ADPSL.SEX","value":1},{"source":"DM.RACE","target":"ADPSL.RACE","value":1},{"source":"DM.ETHNIC","target":"ADPSL.ETHNIC","value":1},{"source":"SUPPDM.SAF1FL","target":"ADPSL.SAF1FL","value":1},{"source":"SUPPDM.SAF2FL","target":"ADPSL.SAF2FL","value":1},{"source":"SUPPDM.SAF3FL","target":"ADPSL.SAF3FL","value":1},{"source":"SUPPDM.SAF4FL","target":"ADPSL.SAF4FL","value":1},{"source":"SUPPDM.SAF5FL","target":"ADPSL.SAF5FL","value":1},{"source":"DM.ARMCD","target":"ADPSL.ARMCD","value":1},{"source":"DM.ARM","target":"ADPSL.ARM","value":1},{"source":"DM.ACTARMCD","target":"ADPSL.ACTARMCD","value":1},{"source":"DM.ACTARM","target":"ADPSL.ACTARM","value":1},{"source":"DM.ARMCD","target":"ADPSL.TRT01P","value":1},{"source":"DM.ARMCD","target":"ADPSL.TRT02P","value":1},{"source":"DM.ARMCD","target":"ADPSL.TRT03P","value":1},{"source":"DM.ARMCD","target":"ADPSL.TRT04P","value":1},{"source":"DM.ARMCD","target":"ADPSL.TRT05P","value":1},{"source":"CE.STUDYID","target":"ADRC.STUDYID","value":1},{"source":"CE.USUBJID","target":"ADRC.USUBJID","value":1},{"source":"ADSL.SUBJID","target":"ADRC.SUBJID","value":1},{"source":"ADSL.SITEID","target":"ADRC.SITEID","value":1},{"source":"ADSL.COUNTRY","target":"ADRC.COUNTRY","value":1},{"source":"ADSL.BRTHDT","target":"ADRC.BRTHDT","value":1},{"source":"ADSL.AGE","target":"ADRC.AGE","value":1},{"source":"ADSL.AGEU","target":"ADRC.AGEU","value":1},{"source":"ADSL.AAGE","target":"ADRC.AAGE","value":1},{"source":"ADSL.AAGEU","target":"ADRC.AAGEU","value":1},{"source":"ADSL.GESTAGE","target":"ADRC.GESTAGE","value":1},{"source":"ADSL.GESTAGEU","target":"ADRC.GESTAGEU","value":1},{"source":"ADSL.GAGECAT","target":"ADRC.GAGECAT","value":1},{"source":"ADSL.GAGECATN","target":"ADRC.GAGECATN","value":1},{"source":"ADSL.SEX","target":"ADRC.SEX","value":1},{"source":"ADSL.RACE","target":"ADRC.RACE","value":1},{"source":"ADSL.RACEGR1","target":"ADRC.RACEGR1","value":1},{"source":"ADSL.RACEGR1N","target":"ADRC.RACEGR1N","value":1},{"source":"ADSL.ETHNIC","target":"ADRC.ETHNIC","value":1},{"source":"ADSL.FAS1FL","target":"ADRC.FAS1FL","value":1},{"source":"ADSL.FAS2FL","target":"ADRC.FAS2FL","value":1},{"source":"ADSL.FAS3FL","target":"ADRC.FAS3FL","value":1},{"source":"ADSL.SAFFL","target":"ADRC.SAFFL","value":1},{"source":"ADSL.SAF1FL","target":"ADRC.SAF1FL","value":1},{"source":"ADSL.SAF2FL","target":"ADRC.SAF2FL","value":1},{"source":"ADSL.SAF3FL","target":"ADRC.SAF3FL","value":1},{"source":"ADSL.SAF4FL","target":"ADRC.SAF4FL","value":1},{"source":"ADSL.SAF5FL","target":"ADRC.SAF5FL","value":1},{"source":"ADSL.SAF6FL","target":"ADRC.SAF6FL","value":1},{"source":"ADSL.PPROT1FL","target":"ADRC.PPROT1FL","value":1},{"source":"ADSL.PPROT2FL","target":"ADRC.PPROT2FL","value":1},{"source":"ADSL.PPROT3FL","target":"ADRC.PPROT3FL","value":1},{"source":"ADSL.RANDFL","target":"ADRC.RANDFL","value":1},{"source":"ADSL.ENRLFL","target":"ADRC.ENRLFL","value":1},{"source":"ADSL.COVIDFL","target":"ADRC.COVIDFL","value":1},{"source":"ADSL.ARMCD","target":"ADRC.ARMCD","value":1},{"source":"ADSL.ARM","target":"ADRC.ARM","value":1},{"source":"ADSL.ARMN","target":"ADRC.ARMN","value":1},{"source":"ADSL.ACTARMCD","target":"ADRC.ACTARMCD","value":1},{"source":"ADSL.ACTARM","target":"ADRC.ACTARM","value":1},{"source":"ADSL.ACTARMN","target":"ADRC.ACTARMN","value":1},{"source":"ADSL.RFSTDTC","target":"ADRC.RFSTDTC","value":1},{"source":"ADSL.RFENDTC","target":"ADRC.RFENDTC","value":1},{"source":"ADSL.TRTSDT","target":"ADRC.TRTSDT","value":1},{"source":"ADSL.TRTEDT","target":"ADRC.TRTEDT","value":1},{"source":"CE.CETERM","target":"ADRC.CETERM","value":1},{"source":"CE.CEDECOD","target":"ADRC.CEDECOD","value":1},{"source":"CE.CEPTCD","target":"ADRC.CEPTCD","value":1},{"source":"CE.CELLT","target":"ADRC.CELLT","value":1},{"source":"CE.CELLTCD","target":"ADRC.CELLTCD","value":1},{"source":"CE.CEHLT","target":"ADRC.CEHLT","value":1},{"source":"CE.CEHLTCD","target":"ADRC.CEHLTCD","value":1},{"source":"CE.CESOC","target":"ADRC.CESOC","value":1},{"source":"CE.CESOCCD","target":"ADRC.CESOCCD","value":1},{"source":"SUPPCE.CEDICTV","target":"ADRC.CEDICTV","value":1},{"source":"CE.CECAT","target":"ADRC.CECAT","value":1},{"source":"CE.CESCAT","target":"ADRC.CESCAT","value":1},{"source":"CE.VISITNUM","target":"ADRC.VISITNUM","value":1},{"source":"CE.VISIT","target":"ADRC.VISIT","value":1},{"source":"CE.CEENDTC","target":"ADRC.CEENDTC","value":1},{"source":"CE.CEPRESP","target":"ADRC.CEPRESP","value":1},{"source":"CE.CEOCCUR","target":"ADRC.CEOCCUR","value":1},{"source":"CE.CESEV","target":"ADRC.CESEV","value":1},{"source":"SUPPCE.CEACNNO","target":"ADRC.CEACNNO","value":1},{"source":"CE.CECONTRT","target":"ADRC.CECONTRT","value":1},{"source":"SUPPCE.CEACHCP","target":"ADRC.CEACHCP","value":1},{"source":"SUPPCE.CEACNC","target":"ADRC.CEACNC","value":1},{"source":"CE.CESHOSP","target":"ADRC.CESHOSP","value":1},{"source":"SUPPCE.CEDIS","target":"ADRC.CEDIS","value":1},{"source":"SUPPCE.OCCUR","target":"ADRC.OCCUR","value":1}]}